%time,field.header.seq,field.header.stamp,field.header.frame_id,field.orientation.x,field.orientation.y,field.orientation.z,field.orientation.w,field.orientation_covariance0,field.orientation_covariance1,field.orientation_covariance2,field.orientation_covariance3,field.orientation_covariance4,field.orientation_covariance5,field.orientation_covariance6,field.orientation_covariance7,field.orientation_covariance8,field.angular_velocity.x,field.angular_velocity.y,field.angular_velocity.z,field.angular_velocity_covariance0,field.angular_velocity_covariance1,field.angular_velocity_covariance2,field.angular_velocity_covariance3,field.angular_velocity_covariance4,field.angular_velocity_covariance5,field.angular_velocity_covariance6,field.angular_velocity_covariance7,field.angular_velocity_covariance8,field.linear_acceleration.x,field.linear_acceleration.y,field.linear_acceleration.z,field.linear_acceleration_covariance0,field.linear_acceleration_covariance1,field.linear_acceleration_covariance2,field.linear_acceleration_covariance3,field.linear_acceleration_covariance4,field.linear_acceleration_covariance5,field.linear_acceleration_covariance6,field.linear_acceleration_covariance7,field.linear_acceleration_covariance8
1405689220826860390,34,1405689220826860390,ardrone_base_link,0.0715227851857,0.00988013069845,-0.00447876315357,0.997379975184,1.0,0.0,0.0,0.0,1.0,0.0,0.0,0.0,100000.0,-7.49826431274e-05,-0.00374253094196,-0.00286559760571,1.0,0.0,0.0,0.0,1.0,0.0,0.0,0.0,1.0,-0.153973515332,-0.302996183559,9.71544783115,0.1,0.0,0.0,0.0,0.1,0.0,0.0,0.0,0.1
1405689220828100877,35,1405689220828100877,ardrone_base_link,0.0715227851857,0.00988013069845,-0.00447876315357,0.997379975184,1.0,0.0,0.0,0.0,1.0,0.0,0.0,0.0,100000.0,-0.000938609300647,-0.00422919169068,-0.00283052190207,1.0,0.0,0.0,0.0,1.0,0.0,0.0,0.0,1.0,-0.155081747472,-0.30205623433,9.71550565958,0.1,0.0,0.0,0.0,0.1,0.0,0.0,0.0,0.1
1405689220829389569,36,1405689220829389569,ardrone_base_link,0.071522871405,0.0098795065328,-0.00448746709223,0.99737993606,1.0,0.0,0.0,0.0,1.0,0.0,0.0,0.0,100000.0,-0.00277677178383,-0.000455696135759,-0.00160838570446,1.0,0.0,0.0,0.0,1.0,0.0,0.0,0.0,1.0,-0.155304226279,-0.30222097598,9.71545308828,0.1,0.0,0.0,0.0,0.1,0.0,0.0,0.0,0.1
1405689220830733725,37,1405689220830733725,ardrone_base_link,0.0715141376219,0.00987084145727,-0.00448675740115,0.997380651315,1.0,0.0,0.0,0.0,1.0,0.0,0.0,0.0,100000.0,-0.00169705599546,-0.00281742960215,-0.00434048799798,1.0,0.0,0.0,0.0,1.0,0.0,0.0,0.0,1.0,-0.155038832501,-0.302295634523,9.71548404694,0.1,0.0,0.0,0.0,0.1,0.0,0.0,0.0,0.1
1405689220832156480,38,1405689220832156480,ardrone_base_link,0.0715140778721,0.0098801697985,-0.00447867689803,0.997380599553,1.0,0.0,0.0,0.0,1.0,0.0,0.0,0.0,100000.0,0.00149705633521,-0.00173958390951,-0.0029356572777,1.0,0.0,0.0,0.0,1.0,0.0,0.0,0.0,1.0,-0.176785077155,-0.303402461112,9.71599340439,0.1,0.0,0.0,0.0,0.1,0.0,0.0,0.0,0.1
1405689220833373661,39,1405689220833373661,ardrone_base_link,0.0715053969421,0.00988891315429,-0.00447921400762,0.997381132891,1.0,0.0,0.0,0.0,1.0,0.0,0.0,0.0,100000.0,0.000287622213364,-4.65922057629e-05,-0.00256033521146,1.0,0.0,0.0,0.0,1.0,0.0,0.0,0.0,1.0,-0.17504536882,-0.303899843991,9.71597471237,0.1,0.0,0.0,0.0,0.1,0.0,0.0,0.0,0.1
1405689220834885088,40,1405689220834885088,ardrone_base_link,0.0715052843301,0.00988083289213,-0.00446988695165,0.99738126289,1.0,0.0,0.0,0.0,1.0,0.0,0.0,0.0,100000.0,0.00136283424217,-0.00368444249034,-0.00244198413566,1.0,0.0,0.0,0.0,1.0,0.0,0.0,0.0,1.0,-0.146200666577,-0.303788312525,9.71534969807,0.1,0.0,0.0,0.0,0.1,0.0,0.0,0.0,0.1
1405689220837448029,41,1405689220837448029,ardrone_base_link,0.0715052843301,0.00988083289213,-0.00446988695165,0.99738126289,1.0,0.0,0.0,0.0,1.0,0.0,0.0,0.0,100000.0,-0.000210594385862,-0.00102985650301,-4.2459461838e-05,1.0,0.0,0.0,0.0,1.0,0.0,0.0,0.0,1.0,-0.14781681411,-0.304092057794,9.71540752649,0.1,0.0,0.0,0.0,0.1,0.0,0.0,0.0,0.1
1405689220838537225,42,1405689220838537225,ardrone_base_link,0.0715051718566,0.0098727526466,-0.00446055963402,0.997381392728,1.0,0.0,0.0,0.0,1.0,0.0,0.0,0.0,100000.0,-0.000397469877498,-0.00359220430255,-0.00177369872108,1.0,0.0,0.0,0.0,1.0,0.0,0.0,0.0,1.0,-0.151669815555,-0.304300316796,9.71551033258,0.1,0.0,0.0,0.0,0.1,0.0,0.0,0.0,0.1
1405689220839891139,43,1405689220839891139,ardrone_base_link,0.0715051456116,0.00986404942572,-0.0044599363406,0.99738148351,1.0,0.0,0.0,0.0,1.0,0.0,0.0,0.0,100000.0,0.000547200499568,-0.00509610027075,-0.00270380428992,1.0,0.0,0.0,0.0,1.0,0.0,0.0,0.0,1.0,-0.149548773654,-0.304317256436,9.71546769142,0.1,0.0,0.0,0.0,0.1,0.0,0.0,0.0,0.1
1405689220876490277,44,1405689220876490277,ardrone_base_link,0.0714963605033,0.00986471224075,-0.00445114660934,0.997382146011,1.0,0.0,0.0,0.0,1.0,0.0,0.0,0.0,100000.0,0.000479385256767,-0.000727482198272,-0.00379727128893,1.0,0.0,0.0,0.0,1.0,0.0,0.0,0.0,1.0,-0.150491223671,-0.304182232171,9.71547762156,0.1,0.0,0.0,0.0,0.1,0.0,0.0,0.0,0.1
1405689220877545243,45,1405689220877545243,ardrone_base_link,0.0714876531707,0.00986475109971,-0.00445106048841,0.997382770149,1.0,0.0,0.0,0.0,1.0,0.0,0.0,0.0,100000.0,0.000213123857975,-0.00356428325176,-0.00550089031458,1.0,0.0,0.0,0.0,1.0,0.0,0.0,0.0,1.0,-0.15109934397,-0.303823725134,9.71547528505,0.1,0.0,0.0,0.0,0.1,0.0,0.0,0.0,0.1
1405689220878259592,46,1405689220878259592,ardrone_base_link,0.0714789541332,0.00986478992087,-0.00445097444925,0.997383393617,1.0,0.0,0.0,0.0,1.0,0.0,0.0,0.0,100000.0,0.000301454216242,-0.00108183175325,-0.00448361411691,1.0,0.0,0.0,0.0,1.0,0.0,0.0,0.0,1.0,-0.152485482953,-0.303359838203,9.71547528505,0.1,0.0,0.0,0.0,0.1,0.0,0.0,0.0,0.1
1405689220878816077,47,1405689220878816077,ardrone_base_link,0.0714788680424,0.00986541370326,-0.00444227048041,0.997383432421,1.0,0.0,0.0,0.0,1.0,0.0,0.0,0.0,100000.0,0.000195939093828,-0.00209246575832,-0.00283115170896,1.0,0.0,0.0,0.0,1.0,0.0,0.0,0.0,1.0,-0.175834777951,-0.30318116881,9.71599632502,0.1,0.0,0.0,0.0,0.1,0.0,0.0,0.0,0.1
1405689220879456600,48,1405689220879456600,ardrone_base_link,0.0714702467897,0.00986482877832,-0.00445088832764,0.997384017603,1.0,0.0,0.0,0.0,1.0,0.0,0.0,0.0,100000.0,-0.00231524929404,-0.00319771468639,-0.00170048326254,1.0,0.0,0.0,0.0,1.0,0.0,0.0,0.0,1.0,-0.198476815596,-0.303063942119,9.71649692059,0.1,0.0,0.0,0.0,0.1,0.0,0.0,0.0,0.1
1405689220880173764,49,1405689220880173764,ardrone_base_link,0.0714702729619,0.00987353202117,-0.00445151131808,0.997383926828,1.0,0.0,0.0,0.0,1.0,0.0,0.0,0.0,100000.0,-0.00388199090958,-0.00225355476141,-0.00177635066211,1.0,0.0,0.0,0.0,1.0,0.0,0.0,0.0,1.0,-0.193189639971,-0.302671281993,9.71637250185,0.1,0.0,0.0,0.0,0.1,0.0,0.0,0.0,0.1
1405689220881510830,50,1405689220881510830,ardrone_base_link,0.0714704452772,0.00987228462423,-0.00446891900465,0.997383848982,1.0,0.0,0.0,0.0,1.0,0.0,0.0,0.0,100000.0,-0.00674805045128,-0.00207422673702,-0.00221012625843,1.0,0.0,0.0,0.0,1.0,0.0,0.0,0.0,1.0,-0.190124167502,-0.302326191589,9.71630299091,0.1,0.0,0.0,0.0,0.1,0.0,0.0,0.0,0.1
1405689220882841905,51,1405689220882841905,ardrone_base_link,0.0714705578232,0.00988036521292,-0.00447824577971,0.997383719068,1.0,0.0,0.0,0.0,1.0,0.0,0.0,0.0,100000.0,-0.00555724650621,6.13629817963e-05,-0.00300676329061,1.0,0.0,0.0,0.0,1.0,0.0,0.0,0.0,1.0,-0.190911367908,-0.279385994375,9.71738888025,0.1,0.0,0.0,0.0,0.1,0.0,0.0,0.0,0.1
1405689220884151386,52,1405689220884151386,ardrone_base_link,0.0714617988701,0.00988973216972,-0.00447007887316,0.997384290479,1.0,0.0,0.0,0.0,1.0,0.0,0.0,0.0,100000.0,-0.0025223530829,-0.000591069459915,-0.00252133794129,1.0,0.0,0.0,0.0,1.0,0.0,0.0,0.0,1.0,-0.189627295732,-0.256666779146,9.71839883327,0.1,0.0,0.0,0.0,0.1,0.0,0.0,0.0,0.1
1405689220906705016,53,1405689220906705016,ardrone_base_link,0.0714617387943,0.0098990590482,-0.00446199780921,0.997384238443,1.0,0.0,0.0,0.0,1.0,0.0,0.0,0.0,100000.0,-2.12714076042e-05,0.000412117718952,-0.00217940611765,1.0,0.0,0.0,0.0,1.0,0.0,0.0,0.0,1.0,-0.189440211281,-0.261319594458,9.7181453228,0.1,0.0,0.0,0.0,0.1,0.0,0.0,0.0,0.1
1405689220907816873,54,1405689220907816873,ardrone_base_link,0.0714616785614,0.00990838694464,-0.00445391707982,0.997384186253,1.0,0.0,0.0,0.0,1.0,0.0,0.0,0.0,100000.0,0.00224566087127,-0.00111555308104,-0.00233390880749,1.0,0.0,0.0,0.0,1.0,0.0,0.0,0.0,1.0,-0.18885807544,-0.263442762941,9.71800863743,0.1,0.0,0.0,0.0,0.1,0.0,0.0,0.0,0.1
1405689220909225771,55,1405689220909225771,ardrone_base_link,0.07145291081,0.00991775263361,-0.00444574943405,0.99738475777,1.0,0.0,0.0,0.0,1.0,0.0,0.0,0.0,100000.0,0.000540684908628,-0.00106291845441,-0.00378222577274,1.0,0.0,0.0,0.0,1.0,0.0,0.0,0.0,1.0,-0.187593096867,-0.262325403839,9.74149165154,0.1,0.0,0.0,0.0,0.1,0.0,0.0,0.0,0.1
1405689220910601769,56,1405689220910601769,ardrone_base_link,0.0714441169038,0.00991841490599,-0.00443695912328,0.997385420286,1.0,0.0,0.0,0.0,1.0,0.0,0.0,0.0,100000.0,0.000231757760048,-0.00289973244071,-0.00334399100393,1.0,0.0,0.0,0.0,1.0,0.0,0.0,0.0,1.0,-0.186328592896,-0.264098699391,9.76435315609,0.1,0.0,0.0,0.0,0.1,0.0,0.0,0.0,0.1
1405689220911151653,57,1405689220911151653,ardrone_base_link,0.0714440562648,0.00992774265869,-0.00442887823332,0.997385367743,1.0,0.0,0.0,0.0,1.0,0.0,0.0,0.0,100000.0,-0.000406537204981,0.000357810407877,-0.00397638231516,1.0,0.0,0.0,0.0,1.0,0.0,0.0,0.0,1.0,-0.18633149527,-0.265353364497,9.75858666897,0.1,0.0,0.0,0.0,0.1,0.0,0.0,0.0,0.1
1405689220911685583,58,1405689220911685583,ardrone_base_link,0.0714352447221,0.00991970038975,-0.00441946489121,0.99738612066,1.0,0.0,0.0,0.0,1.0,0.0,0.0,0.0,100000.0,0.000151675194502,-0.0042677745223,-0.00447799265385,1.0,0.0,0.0,0.0,1.0,0.0,0.0,0.0,1.0,-0.186642870679,-0.267252575606,9.75556498766,0.1,0.0,0.0,0.0,0.1,0.0,0.0,0.0,0.1
1405689220912424429,59,1405689220912424429,ardrone_base_link,0.0714264507871,0.0099203622785,-0.00441067455154,0.997386782793,1.0,0.0,0.0,0.0,1.0,0.0,0.0,0.0,100000.0,0.000642295926809,-0.00328683853149,-0.00254119094461,1.0,0.0,0.0,0.0,1.0,0.0,0.0,0.0,1.0,-0.187017149106,-0.268724444136,9.75723266602,0.1,0.0,0.0,0.0,0.1,0.0,0.0,0.0,0.1
1405689220912969620,60,1405689220912969620,ardrone_base_link,0.0714176651385,0.00992102399571,-0.0044018840235,0.997387444179,1.0,0.0,0.0,0.0,1.0,0.0,0.0,0.0,100000.0,0.000396579504013,-0.00499829277396,-0.00546646490693,1.0,0.0,0.0,0.0,1.0,0.0,0.0,0.0,1.0,-0.187347764149,-0.292854267731,9.7791724205,0.1,0.0,0.0,0.0,0.1,0.0,0.0,0.0,0.1
1405689220914109967,61,1405689220914109967,ardrone_base_link,0.0714176394444,0.00991232072266,-0.00440126148566,0.9973875353,1.0,0.0,0.0,0.0,1.0,0.0,0.0,0.0,100000.0,0.000170022249222,-0.00545981898904,-0.00354788638651,1.0,0.0,0.0,0.0,1.0,0.0,0.0,0.0,1.0,-0.187792867795,-0.315793698281,9.80112268925,0.1,0.0,0.0,0.0,0.1,0.0,0.0,0.0,0.1
1405689220915524948,62,1405689220915524948,ardrone_base_link,0.0714089577596,0.00992106242459,-0.00440179741096,0.99738806763,1.0,0.0,0.0,0.0,1.0,0.0,0.0,0.0,100000.0,-0.00232823938131,-0.000459510833025,-0.00340021308511,1.0,0.0,0.0,0.0,1.0,0.0,0.0,0.0,1.0,-0.188701018691,-0.309727919847,9.79542804956,0.1,0.0,0.0,0.0,0.1,0.0,0.0,0.0,0.1
1405689220916839362,63,1405689220916839362,ardrone_base_link,0.0714002843693,0.00992980513683,-0.00440233334047,0.997388599204,1.0,0.0,0.0,0.0,1.0,0.0,0.0,0.0,100000.0,-0.00141768530011,-0.0019310824573,-0.00358560890891,1.0,0.0,0.0,0.0,1.0,0.0,0.0,0.0,1.0,-0.190368112922,-0.305412820354,9.76928142309,0.1,0.0,0.0,0.0,0.1,0.0,0.0,0.0,0.1
1405689220939279224,64,1405689220939279224,ardrone_base_link,0.0714002843693,0.00992980513683,-0.00440233334047,0.997388599204,1.0,0.0,0.0,0.0,1.0,0.0,0.0,0.0,100000.0,-0.00248376652598,-0.00173173099756,-0.00240231025964,1.0,0.0,0.0,0.0,1.0,0.0,0.0,0.0,1.0,-0.191130542755,-0.28293483071,9.74900467396,0.1,0.0,0.0,0.0,0.1,0.0,0.0,0.0,0.1
1405689220940570779,65,1405689220940570779,ardrone_base_link,0.0714002843693,0.00992980513683,-0.00440233334047,0.997388599204,1.0,0.0,0.0,0.0,1.0,0.0,0.0,0.0,100000.0,-0.0010155364871,-0.00271199643612,-0.00220086984336,1.0,0.0,0.0,0.0,1.0,0.0,0.0,0.0,1.0,-0.190353108197,-0.259532736242,9.75535470247,0.1,0.0,0.0,0.0,0.1,0.0,0.0,0.0,0.1
1405689220941871204,66,1405689220941871204,ardrone_base_link,0.0713914291972,0.00993979391592,-0.00438546125601,0.997389207914,1.0,0.0,0.0,0.0,1.0,0.0,0.0,0.0,100000.0,0.00159489375073,-0.00291033112444,-0.00287746405229,1.0,0.0,0.0,0.0,1.0,0.0,0.0,0.0,1.0,-0.189775243774,-0.264173613489,9.7582326889,0.1,0.0,0.0,0.0,0.1,0.0,0.0,0.0,0.1
1405689220943046928,67,1405689220943046928,ardrone_base_link,0.0713914291972,0.00993979391592,-0.00438546125601,0.997389207914,1.0,0.0,0.0,0.0,1.0,0.0,0.0,0.0,100000.0,-2.57603824139e-05,-0.00219479203224,-0.00162933953106,1.0,0.0,0.0,0.0,1.0,0.0,0.0,0.0,1.0,-0.18954305388,-0.28851381354,9.7552110076,0.1,0.0,0.0,0.0,0.1,0.0,0.0,0.0,0.1
1405689220943793061,68,1405689220943793061,ardrone_base_link,0.0713913424544,0.00994041691593,-0.00437675749584,0.997389246146,1.0,0.0,0.0,0.0,1.0,0.0,0.0,0.0,100000.0,0.00121126323938,-0.00204188004136,-0.00120871933177,1.0,0.0,0.0,0.0,1.0,0.0,0.0,0.0,1.0,-0.189122209698,-0.308701793849,9.75483307838,0.1,0.0,0.0,0.0,0.1,0.0,0.0,0.0,0.1
1405689220944512932,69,1405689220944512932,ardrone_base_link,0.0713913679067,0.00994912020368,-0.00437737980719,0.997389154815,1.0,0.0,0.0,0.0,1.0,0.0,0.0,0.0,100000.0,-9.51625406742e-05,-0.00235772505403,-0.00320054357871,1.0,0.0,0.0,0.0,1.0,0.0,0.0,0.0,1.0,-0.188338514045,-0.303743170574,9.75494523048,0.1,0.0,0.0,0.0,0.1,0.0,0.0,0.0,0.1
1405689220945150550,70,1405689220945150550,ardrone_base_link,0.0713913424544,0.00994041691593,-0.00437675749584,0.997389246146,1.0,0.0,0.0,0.0,1.0,0.0,0.0,0.0,100000.0,-0.000299584120512,-0.00488540157676,-0.00159333506599,1.0,0.0,0.0,0.0,1.0,0.0,0.0,0.0,1.0,-0.188738603517,-0.300765243918,9.73181385994,0.1,0.0,0.0,0.0,0.1,0.0,0.0,0.0,0.1
1405689220946685197,71,1405689220946685197,ardrone_base_link,0.0713825483113,0.00994107804872,-0.00436796694805,0.997389907523,1.0,0.0,0.0,0.0,1.0,0.0,0.0,0.0,100000.0,0.000568248331547,-0.00405058637261,-0.00317705050111,1.0,0.0,0.0,0.0,1.0,0.0,0.0,0.0,1.0,-0.188673966378,-0.303465966508,9.73215615749,0.1,0.0,0.0,0.0,0.1,0.0,0.0,0.0,0.1
1405689220949471834,72,1405689220949471834,ardrone_base_link,0.0713738492116,0.00994111614514,-0.00436788024317,0.997390530074,1.0,0.0,0.0,0.0,1.0,0.0,0.0,0.0,100000.0,0.00044933333993,-0.00260805338621,-0.00390490563586,1.0,0.0,0.0,0.0,1.0,0.0,0.0,0.0,1.0,-0.187818058208,-0.304490431398,9.76085482836,0.1,0.0,0.0,0.0,0.1,0.0,0.0,0.0,0.1
1405689220961953140,73,1405689220961953140,ardrone_base_link,0.0713737624547,0.00994173901031,-0.00435917621206,0.997390568153,1.0,0.0,0.0,0.0,1.0,0.0,0.0,0.0,100000.0,0.000189777463675,-0.00445033609867,-0.00145116634667,1.0,0.0,0.0,0.0,1.0,0.0,0.0,0.0,1.0,-0.165853660926,-0.30477068387,9.75759657621,0.1,0.0,0.0,0.0,0.1,0.0,0.0,0.0,0.1
1405689220962504913,74,1405689220962504913,ardrone_base_link,0.0713650550486,0.00994177706634,-0.00435908941868,0.997391191221,1.0,0.0,0.0,0.0,1.0,0.0,0.0,0.0,100000.0,0.000324115157127,0.000137403607368,-0.00447350554168,1.0,0.0,0.0,0.0,1.0,0.0,0.0,0.0,1.0,-0.144599122182,-0.30444711484,9.75239961147,0.1,0.0,0.0,0.0,0.1,0.0,0.0,0.0,0.1
1405689220964607146,75,1405689220964607146,ardrone_base_link,0.0713649430532,0.00993369549315,-0.00434976348082,0.997391320473,1.0,0.0,0.0,0.0,1.0,0.0,0.0,0.0,100000.0,0.000227078795433,-0.00410474091768,-0.00262509472668,1.0,0.0,0.0,0.0,1.0,0.0,0.0,0.0,1.0,-0.1500759013,-0.282114718482,9.75567013025,0.1,0.0,0.0,0.0,0.1,0.0,0.0,0.0,0.1
1405689220969797447,76,1405689220969797447,ardrone_base_link,0.0713648311963,0.00992561393656,-0.00434043728132,0.997391449563,1.0,0.0,0.0,0.0,1.0,0.0,0.0,0.0,100000.0,0.000250041484833,-0.00407585129142,-0.00238962774165,1.0,0.0,0.0,0.0,1.0,0.0,0.0,0.0,1.0,-0.130179819465,-0.259586092457,9.75572036505,0.1,0.0,0.0,0.0,0.1,0.0,0.0,0.0,0.1
1405689220974860317,77,1405689220974860317,ardrone_base_link,0.0713560203718,0.00991757117204,-0.0043310249136,0.997392200873,1.0,0.0,0.0,0.0,1.0,0.0,0.0,0.0,100000.0,0.000350214570062,-0.00361027591862,-0.00269513064995,1.0,0.0,0.0,0.0,1.0,0.0,0.0,0.0,1.0,-0.129148034751,-0.264760002494,9.75570400953,0.1,0.0,0.0,0.0,0.1,0.0,0.0,0.0,0.1
1405689221017754658,78,1405689221017754658,ardrone_base_link,0.0713646692842,0.00990012574238,-0.00432986716105,0.997391760412,1.0,0.0,0.0,0.0,1.0,0.0,0.0,0.0,100000.0,-0.00227117910981,-0.00827223807573,-0.000101271551102,1.0,0.0,0.0,0.0,1.0,0.0,0.0,0.0,1.0,-0.157853185758,-0.267032269016,9.73248852491,0.1,0.0,0.0,0.0,0.1,0.0,0.0,0.0,0.1
1405689221017974130,79,1405689221017974130,ardrone_base_link,0.0713558837689,0.00990078621564,-0.00432107676608,0.997392420554,1.0,0.0,0.0,0.0,1.0,0.0,0.0,0.0,100000.0,-0.00141214579344,-0.00266038253903,-0.00306375091895,1.0,0.0,0.0,0.0,1.0,0.0,0.0,0.0,1.0,-0.155693034828,-0.264427178726,9.70978298187,0.1,0.0,0.0,0.0,0.1,0.0,0.0,0.0,0.1
1405689221018117499,80,1405689221018117499,ardrone_base_link,0.071355945057,0.00989145915382,-0.00432915872566,0.997392473666,1.0,0.0,0.0,0.0,1.0,0.0,0.0,0.0,100000.0,-0.00250231102109,-0.00441345199943,-0.00361303146929,1.0,0.0,0.0,0.0,1.0,0.0,0.0,0.0,1.0,-0.151721729711,-0.287138891593,9.71440341473,0.1,0.0,0.0,0.0,0.1,0.0,0.0,0.0,0.1
1405689221019587472,81,1405689221019587472,ardrone_base_link,0.0713385133884,0.00988283034069,-0.00432836416269,0.997393809604,1.0,0.0,0.0,0.0,1.0,0.0,0.0,0.0,100000.0,-0.0036094263196,-0.00303144007921,-0.00529777631164,1.0,0.0,0.0,0.0,1.0,0.0,0.0,0.0,1.0,-0.154241154343,-0.30880003646,9.71636023521,0.1,0.0,0.0,0.0,0.1,0.0,0.0,0.0,0.1
1405689221021153358,82,1405689221021153358,ardrone_base_link,0.0713298921945,0.00988224566472,-0.00433698168903,0.997394394555,1.0,0.0,0.0,0.0,1.0,0.0,0.0,0.0,100000.0,-0.00261219590902,-0.00398342683911,-0.00484313257039,1.0,0.0,0.0,0.0,1.0,0.0,0.0,0.0,1.0,-0.153922203556,-0.302945857495,9.71499162912,0.1,0.0,0.0,0.0,0.1,0.0,0.0,0.0,0.1
1405689221022186876,83,1405689221022186876,ardrone_base_link,0.0713299278768,0.00986421547916,-0.0043444421096,0.997394538016,1.0,0.0,0.0,0.0,1.0,0.0,0.0,0.0,100000.0,-0.00701900944114,-0.00725121423602,-0.00427273288369,1.0,0.0,0.0,0.0,1.0,0.0,0.0,0.0,1.0,-0.154180825129,-0.299499425665,9.71555589437,0.1,0.0,0.0,0.0,0.1,0.0,0.0,0.0,0.1
1405689221023562937,84,1405689221023562937,ardrone_base_link,0.0713213065141,0.00986363101848,-0.00435305980481,0.997395122753,1.0,0.0,0.0,0.0,1.0,0.0,0.0,0.0,100000.0,-0.00459835352376,-0.00324779748917,-0.00236770603806,1.0,0.0,0.0,0.0,1.0,0.0,0.0,0.0,1.0,-0.176261883229,-0.300999094918,9.7158882618,0.1,0.0,0.0,0.0,0.1,0.0,0.0,0.0,0.1
1405689221024762615,85,1405689221024762615,ardrone_base_link,0.0713213925893,0.00986300861109,-0.00436176387567,0.997395084726,1.0,0.0,0.0,0.0,1.0,0.0,0.0,0.0,100000.0,-0.00289967283607,-0.00489777326584,-0.00197547115386,1.0,0.0,0.0,0.0,1.0,0.0,0.0,0.0,1.0,-0.198225276545,-0.300528746098,9.71659680605,0.1,0.0,0.0,0.0,0.1,0.0,0.0,0.0,0.1
1405689221064956748,86,1405689221064956748,ardrone_base_link,0.0713213925893,0.00986300861109,-0.00436176387567,0.997395084726,1.0,0.0,0.0,0.0,1.0,0.0,0.0,0.0,100000.0,-0.000588960945606,-0.00263246521354,-0.00205045752227,1.0,0.0,0.0,0.0,1.0,0.0,0.0,0.0,1.0,-0.192522842437,-0.300174145401,9.71632869244,0.1,0.0,0.0,0.0,0.1,0.0,0.0,0.0,0.1
1405689221067380049,87,1405689221067380049,ardrone_base_link,0.0713213065141,0.00986363101848,-0.00435305980481,0.997395122753,1.0,0.0,0.0,0.0,1.0,0.0,0.0,0.0,100000.0,0.0025401674211,-0.00390687584877,-0.000745391938835,1.0,0.0,0.0,0.0,1.0,0.0,0.0,0.0,1.0,-0.166895923391,-0.299552508071,9.7157761097,0.1,0.0,0.0,0.0,0.1,0.0,0.0,0.0,0.1
1405689221068590996,88,1405689221068590996,ardrone_base_link,0.07132128115,0.00985492664173,-0.00435243802206,0.997395213323,1.0,0.0,0.0,0.0,1.0,0.0,0.0,0.0,100000.0,-0.00184243917465,-0.00481578707695,-0.00199455395341,1.0,0.0,0.0,0.0,1.0,0.0,0.0,0.0,1.0,-0.14689969141,-0.322282383591,9.71429243088,0.1,0.0,0.0,0.0,0.1,0.0,0.0,0.0,0.1
1405689221076960084,89,1405689221076960084,ardrone_base_link,0.0713213417068,0.00984560089488,-0.00436052038554,0.997395265791,1.0,0.0,0.0,0.0,1.0,0.0,0.0,0.0,100000.0,-0.001519292593,-0.00405557826161,-0.00238388590515,1.0,0.0,0.0,0.0,1.0,0.0,0.0,0.0,1.0,-0.17433777377,-0.323067484796,9.71491919756,0.1,0.0,0.0,0.0,0.1,0.0,0.0,0.0,0.1
1405689221078120816,90,1405689221078120816,ardrone_base_link,0.0713126425603,0.00984563892636,-0.0043604345134,0.997395887808,1.0,0.0,0.0,0.0,1.0,0.0,0.0,0.0,100000.0,-0.00315202400088,-0.00385981798172,-0.0023591928184,1.0,0.0,0.0,0.0,1.0,0.0,0.0,0.0,1.0,-0.198463344201,-0.297217028216,9.71678080559,0.1,0.0,0.0,0.0,0.1,0.0,0.0,0.0,0.1
1405689221079464236,91,1405689221079464236,ardrone_base_link,0.0713040210238,0.00984505475613,-0.00436905238256,0.997396472254,1.0,0.0,0.0,0.0,1.0,0.0,0.0,0.0,100000.0,-0.00379103794694,-0.00409329682589,-0.00462004682049,1.0,0.0,0.0,0.0,1.0,0.0,0.0,0.0,1.0,-0.191063423082,-0.301223034039,9.71650100946,0.1,0.0,0.0,0.0,0.1,0.0,0.0,0.0,0.1
1405689221080865034,92,1405689221080865034,ardrone_base_link,0.0713040210238,0.00984505475613,-0.00436905238256,0.997396472254,1.0,0.0,0.0,0.0,1.0,0.0,0.0,0.0,100000.0,0.000275705009699,-0.00394377112389,-0.00298484228551,1.0,0.0,0.0,0.0,1.0,0.0,0.0,0.0,1.0,-0.166258952767,-0.306276030093,9.71570893526,0.1,0.0,0.0,0.0,0.1,0.0,0.0,0.0,0.1
1405689221082076236,93,1405689221082076236,ardrone_base_link,0.0713039954953,0.00983635036748,-0.00436843075264,0.997396562682,1.0,0.0,0.0,0.0,1.0,0.0,0.0,0.0,100000.0,-0.00261328369379,-0.00410126894712,-0.00217665173113,1.0,0.0,0.0,0.0,1.0,0.0,0.0,0.0,1.0,-0.145713898353,-0.304168760777,9.71533801556,0.1,0.0,0.0,0.0,0.1,0.0,0.0,0.0,0.1
1405689221083297984,94,1405689221083297984,ardrone_base_link,0.0712952708059,0.00982768511072,-0.00436772348093,0.99739727489,1.0,0.0,0.0,0.0,1.0,0.0,0.0,0.0,100000.0,-0.000234093517065,-0.0041623339057,-0.00239677494392,1.0,0.0,0.0,0.0,1.0,0.0,0.0,0.0,1.0,-0.151103679277,-0.304333593696,9.71543381214,0.1,0.0,0.0,0.0,0.1,0.0,0.0,0.0,0.1
1405689221086241932,95,1405689221086241932,ardrone_base_link,0.0712952708059,0.00982768511072,-0.00436772348093,0.99739727489,1.0,0.0,0.0,0.0,1.0,0.0,0.0,0.0,100000.0,-0.001394379884,-0.00399753451347,-0.00157359428704,1.0,0.0,0.0,0.0,1.0,0.0,0.0,0.0,1.0,-0.177498148382,-0.303069984168,9.69262020588,0.1,0.0,0.0,0.0,0.1,0.0,0.0,0.0,0.1
1405689221087109469,96,1405689221087109469,ardrone_base_link,0.0712952452657,0.00981898071514,-0.00436710192626,0.997397365166,1.0,0.0,0.0,0.0,1.0,0.0,0.0,0.0,100000.0,-0.0022738724947,-0.0065368488431,-0.00272878725082,1.0,0.0,0.0,0.0,1.0,0.0,0.0,0.0,1.0,-0.198730563372,-0.302342382818,9.67018511295,0.1,0.0,0.0,0.0,0.1,0.0,0.0,0.0,0.1
1405689221120858184,97,1405689221120858184,ardrone_base_link,0.0712865378003,0.00981901884037,-0.00436701620458,0.997397987549,1.0,0.0,0.0,0.0,1.0,0.0,0.0,0.0,100000.0,-0.00126860663295,-0.00319946557283,-0.00281163258478,1.0,0.0,0.0,0.0,1.0,0.0,0.0,0.0,1.0,-0.193655607849,-0.301776419953,9.67585813999,0.1,0.0,0.0,0.0,0.1,0.0,0.0,0.0,0.1
1405689221121988470,98,1405689221121988470,ardrone_base_link,0.0712865633412,0.00982772324137,-0.00436763768327,0.997397897273,1.0,0.0,0.0,0.0,1.0,0.0,0.0,0.0,100000.0,-0.00121856108308,-0.0026479139924,-0.00220177345909,1.0,0.0,0.0,0.0,1.0,0.0,0.0,0.0,1.0,-0.190644769371,-0.301502939686,9.67879395485,0.1,0.0,0.0,0.0,0.1,0.0,0.0,0.0,0.1
1405689221123660019,99,1405689221123660019,ardrone_base_link,0.0712865888736,0.00983642660403,-0.00436825908753,0.997397806931,1.0,0.0,0.0,0.0,1.0,0.0,0.0,0.0,100000.0,0.000932324677706,0.00157546624541,-0.000952268950641,1.0,0.0,0.0,0.0,1.0,0.0,0.0,0.0,1.0,-0.192609347776,-0.30139080584,9.67716950178,0.1,0.0,0.0,0.0,0.1,0.0,0.0,0.0,0.1
1405689221124817965,100,1405689221124817965,ardrone_base_link,0.071286528487,0.00984575308888,-0.00436017673112,0.99739775459,1.0,0.0,0.0,0.0,1.0,0.0,0.0,0.0,100000.0,0.000302080065012,0.00050001963973,-0.00151493912563,1.0,0.0,0.0,0.0,1.0,0.0,0.0,0.0,1.0,-0.191236506775,-0.301969418675,9.70099948645,0.1,0.0,0.0,0.0,0.1,0.0,0.0,0.0,0.1
1405689221126065455,101,1405689221126065455,ardrone_base_link,0.0712864425623,0.00984637519202,-0.00435147263696,0.997397792602,1.0,0.0,0.0,0.0,1.0,0.0,0.0,0.0,100000.0,0.00133021920919,-0.00320589914918,-0.000830997305457,1.0,0.0,0.0,0.0,1.0,0.0,0.0,0.0,1.0,-0.19015952535,-0.302763738111,9.72378855944,0.1,0.0,0.0,0.0,0.1,0.0,0.0,0.0,0.1
1405689221127514248,102,1405689221127514248,ardrone_base_link,0.0712864425623,0.00984637519202,-0.00435147263696,0.997397792602,1.0,0.0,0.0,0.0,1.0,0.0,0.0,0.0,100000.0,-0.00021131336689,-0.00563102588058,-0.00312408292666,1.0,0.0,0.0,0.0,1.0,0.0,0.0,0.0,1.0,-0.189465200901,-0.302973457426,9.71818737984,0.1,0.0,0.0,0.0,0.1,0.0,0.0,0.0,0.1
1405689221128497212,103,1405689221128497212,ardrone_base_link,0.0712777097142,0.00983770877543,-0.00435076527252,0.997398505325,1.0,0.0,0.0,0.0,1.0,0.0,0.0,0.0,100000.0,-0.000187527388334,-0.00770195573568,-0.00267412001267,1.0,0.0,0.0,0.0,1.0,0.0,0.0,0.0,1.0,-0.188803496212,-0.303380866721,9.71504186392,0.1,0.0,0.0,0.0,0.1,0.0,0.0,0.0,0.1
1405689221130228113,104,1405689221130228113,ardrone_base_link,0.0712776843329,0.0098290054069,-0.00435014394266,0.997398595656,1.0,0.0,0.0,0.0,1.0,0.0,0.0,0.0,100000.0,-0.00203689187765,-0.00607141107321,-0.00418685283512,1.0,0.0,0.0,0.0,1.0,0.0,0.0,0.0,1.0,-0.188258251548,-0.303912621737,9.71673115492,0.1,0.0,0.0,0.0,0.1,0.0,0.0,0.0,0.1
1405689221131196765,105,1405689221131196765,ardrone_base_link,0.0712689597668,0.00982033893559,-0.00434943688692,0.997399307557,1.0,0.0,0.0,0.0,1.0,0.0,0.0,0.0,100000.0,-0.00127425417304,-0.00566433742642,-0.00300821848214,1.0,0.0,0.0,0.0,1.0,0.0,0.0,0.0,1.0,-0.187720034644,-0.304828037694,9.73974511623,0.1,0.0,0.0,0.0,0.1,0.0,0.0,0.0,0.1
1405689221173819858,106,1405689221173819858,ardrone_base_link,0.0712691566962,0.00982779946409,-0.00436746616872,0.997399141217,1.0,0.0,0.0,0.0,1.0,0.0,0.0,0.0,100000.0,-0.00508205965161,-0.00254510343075,-0.00227483198978,1.0,0.0,0.0,0.0,1.0,0.0,0.0,0.0,1.0,-0.188018468022,-0.305399458483,9.76269248724,0.1,0.0,0.0,0.0,0.1,0.0,0.0,0.0,0.1
1405689221175143444,107,1405689221175143444,ardrone_base_link,0.0712691311537,0.00981909505224,-0.00436684484195,0.997399231493,1.0,0.0,0.0,0.0,1.0,0.0,0.0,0.0,100000.0,-0.00268093496561,-0.00405324995518,-0.0023046368733,1.0,0.0,0.0,0.0,1.0,0.0,0.0,0.0,1.0,-0.167119187117,-0.304496856779,9.75622797012,0.1,0.0,0.0,0.0,0.1,0.0,0.0,0.0,0.1
1405689221176495901,108,1405689221176495901,ardrone_base_link,0.0712605093563,0.00981851131769,-0.00437546297202,0.997399815503,1.0,0.0,0.0,0.0,1.0,0.0,0.0,0.0,100000.0,-0.00381213799119,-0.00337129086256,-0.00165996327996,1.0,0.0,0.0,0.0,1.0,0.0,0.0,0.0,1.0,-0.14724050127,-0.302700597793,9.72945224047,0.1,0.0,0.0,0.0,0.1,0.0,0.0,0.0,0.1
1405689221178011188,109,1405689221178011188,ardrone_base_link,0.0712604837317,0.00980980689989,-0.0043748417217,0.997399905708,1.0,0.0,0.0,0.0,1.0,0.0,0.0,0.0,100000.0,-0.00302536040545,-0.00455312803388,-0.00411857711151,1.0,0.0,0.0,0.0,1.0,0.0,0.0,0.0,1.0,-0.15413396731,-0.301196438074,9.70832383633,0.1,0.0,0.0,0.0,0.1,0.0,0.0,0.0,0.1
1405689221179043052,110,1405689221179043052,ardrone_base_link,0.0712517332806,0.00979243724521,-0.00437351388598,0.997400707366,1.0,0.0,0.0,0.0,1.0,0.0,0.0,0.0,100000.0,-0.000190291553736,-0.00699007883668,-0.00364933349192,1.0,0.0,0.0,0.0,1.0,0.0,0.0,0.0,1.0,-0.156677596644,-0.300418528914,9.71370363235,0.1,0.0,0.0,0.0,0.1,0.0,0.0,0.0,0.1
1405689221180314006,111,1405689221180314006,ardrone_base_link,0.071243025786,0.00979247542642,-0.00437342839603,0.997401329368,1.0,0.0,0.0,0.0,1.0,0.0,0.0,0.0,100000.0,-0.00171811133623,-0.00290667638183,-0.0051287766546,1.0,0.0,0.0,0.0,1.0,0.0,0.0,0.0,1.0,-0.154327440634,-0.299819745496,9.71680475473,0.1,0.0,0.0,0.0,0.1,0.0,0.0,0.0,0.1
1405689221181689826,112,1405689221181689826,ardrone_base_link,0.0712429147653,0.00978439373789,-0.00436410350391,0.997401457456,1.0,0.0,0.0,0.0,1.0,0.0,0.0,0.0,100000.0,0.00194716081023,-0.00501367868856,-0.00259645842016,1.0,0.0,0.0,0.0,1.0,0.0,0.0,0.0,1.0,-0.154050017521,-0.299619645998,9.71496475935,0.1,0.0,0.0,0.0,0.1,0.0,0.0,0.0,0.1
1405689221182967854,113,1405689221182967854,ardrone_base_link,0.0712343009464,0.0097838101718,-0.00437272203778,0.997402040668,1.0,0.0,0.0,0.0,1.0,0.0,0.0,0.0,100000.0,-0.00264386460185,-0.000139120966196,-0.00229281373322,1.0,0.0,0.0,0.0,1.0,0.0,0.0,0.0,1.0,-0.153295801952,-0.300080247223,9.71553428173,0.1,0.0,0.0,0.0,0.1,0.0,0.0,0.0,0.1
1405689221184267547,114,1405689221184267547,ardrone_base_link,0.0712343009464,0.0097838101718,-0.00437272203778,0.997402040668,1.0,0.0,0.0,0.0,1.0,0.0,0.0,0.0,100000.0,-0.00343206897378,-0.00225458666682,-0.00310424156487,1.0,0.0,0.0,0.0,1.0,0.0,0.0,0.0,1.0,-0.152443918772,-0.278514734656,9.71645778418,0.1,0.0,0.0,0.0,0.1,0.0,0.0,0.0,0.1
1405689221185670534,115,1405689221185670534,ardrone_base_link,0.0712342752977,0.00977510573476,-0.00437210101395,0.997402130569,1.0,0.0,0.0,0.0,1.0,0.0,0.0,0.0,100000.0,-0.00436298921704,-0.00458822771907,-0.00142228696495,1.0,0.0,0.0,0.0,1.0,0.0,0.0,0.0,1.0,-0.151866236888,-0.280193091556,9.71656759977,0.1,0.0,0.0,0.0,0.1,0.0,0.0,0.0,0.1
1405689221186828976,116,1405689221186828976,ardrone_base_link,0.0712256530936,0.00977452233174,-0.00438071981275,0.997402714228,1.0,0.0,0.0,0.0,1.0,0.0,0.0,0.0,100000.0,-0.00420933589339,-0.00178865343332,-0.00363800348714,1.0,0.0,0.0,0.0,1.0,0.0,0.0,0.0,1.0,-0.1520725701,-0.30869602561,9.71518497467,0.1,0.0,0.0,0.0,0.1,0.0,0.0,0.0,0.1
1405689221188203978,117,1405689221188203978,ardrone_base_link,0.0712257125819,0.00976519633487,-0.00438880274386,0.997402765796,1.0,0.0,0.0,0.0,1.0,0.0,0.0,0.0,100000.0,-0.00213685631752,-0.00626551359892,-0.00321884430014,1.0,0.0,0.0,0.0,1.0,0.0,0.0,0.0,1.0,-0.151626362093,-0.306392015517,9.71532866955,0.1,0.0,0.0,0.0,0.1,0.0,0.0,0.0,0.1
1405689221191130331,118,1405689221191130331,ardrone_base_link,0.0712170050692,0.00976523464956,-0.00438871749173,0.997403387572,1.0,0.0,0.0,0.0,1.0,0.0,0.0,0.0,100000.0,-0.00271825119853,-0.00238781422377,-0.00161613908131,1.0,0.0,0.0,0.0,1.0,0.0,0.0,0.0,1.0,-0.151307940669,-0.301628362387,9.71557224989,0.1,0.0,0.0,0.0,0.1,0.0,0.0,0.0,0.1
1405689221194623229,119,1405689221194623229,ardrone_base_link,0.0712171495325,0.00975528826214,-0.00440550472259,0.997403400581,1.0,0.0,0.0,0.0,1.0,0.0,0.0,0.0,100000.0,-0.00617629662156,-0.00473587587476,-0.00337293138728,1.0,0.0,0.0,0.0,1.0,0.0,0.0,0.0,1.0,-0.151534864306,-0.302986928821,9.71544315815,0.1,0.0,0.0,0.0,0.1,0.0,0.0,0.0,0.1
1405689221232552738,120,1405689221232552738,ardrone_base_link,0.0712172086159,0.00974596231473,-0.00441358799676,0.997403451797,1.0,0.0,0.0,0.0,1.0,0.0,0.0,0.0,100000.0,-0.0049644485116,-0.00443362817168,-0.00154538173229,1.0,0.0,0.0,0.0,1.0,0.0,0.0,0.0,1.0,-0.151993010379,-0.301769173145,9.71547995806,0.1,0.0,0.0,0.0,0.1,0.0,0.0,0.0,0.1
1405689221233808438,121,1405689221233808438,ardrone_base_link,0.0712172086159,0.00974596231473,-0.00441358799676,0.997403451797,1.0,0.0,0.0,0.0,1.0,0.0,0.0,0.0,100000.0,-0.00349066779017,-0.000954460352659,-0.000869396608323,1.0,0.0,0.0,0.0,1.0,0.0,0.0,0.0,1.0,-0.152625682205,-0.301430690661,9.71546769142,0.1,0.0,0.0,0.0,0.1,0.0,0.0,0.0,0.1
1405689221235272833,122,1405689221235272833,ardrone_base_link,0.0712172086159,0.00974596231473,-0.00441358799676,0.997403451797,1.0,0.0,0.0,0.0,1.0,0.0,0.0,0.0,100000.0,-0.000325195491314,7.4427574873e-05,-0.00201886892319,1.0,0.0,0.0,0.0,1.0,0.0,0.0,0.0,1.0,-0.153234505281,-0.300638214871,9.71547937393,0.1,0.0,0.0,0.0,0.1,0.0,0.0,0.0,0.1
1405689221236909723,123,1405689221236909723,ardrone_base_link,0.0712172346623,0.00975466676372,-0.00441420886569,0.997403362098,1.0,0.0,0.0,0.0,1.0,0.0,0.0,0.0,100000.0,0.000199276953936,0.000166613608599,-0.000755831133574,1.0,0.0,0.0,0.0,1.0,0.0,0.0,0.0,1.0,-0.153628370166,-0.300505746156,9.7154741168,0.1,0.0,0.0,0.0,0.1,0.0,0.0,0.0,0.1
1405689221237952701,124,1405689221237952701,ardrone_base_link,0.0712172346623,0.00975466676372,-0.00441420886569,0.997403362098,1.0,0.0,0.0,0.0,1.0,0.0,0.0,0.0,100000.0,-0.00103740394115,-0.00228089466691,-0.00156299211085,1.0,0.0,0.0,0.0,1.0,0.0,0.0,0.0,1.0,-0.153578518704,-0.300622425228,9.7154717803,0.1,0.0,0.0,0.0,0.1,0.0,0.0,0.0,0.1
1405689221239056942,125,1405689221239056942,ardrone_base_link,0.0712172086159,0.00974596231473,-0.00441358799676,0.997403451797,1.0,0.0,0.0,0.0,1.0,0.0,0.0,0.0,100000.0,-0.00261720642447,-0.00576764345169,-0.00184778426774,1.0,0.0,0.0,0.0,1.0,0.0,0.0,0.0,1.0,-0.153044509329,-0.301202662662,9.71547937393,0.1,0.0,0.0,0.0,0.1,0.0,0.0,0.0,0.1
1405689221240489596,126,1405689221240489596,ardrone_base_link,0.07121715651,0.00972855445214,-0.0044123463319,0.997403630957,1.0,0.0,0.0,0.0,1.0,0.0,0.0,0.0,100000.0,-0.00173749774694,-0.00789913907647,-0.00125050731003,1.0,0.0,0.0,0.0,1.0,0.0,0.0,0.0,1.0,-0.152296089381,-0.302313906699,9.7154741168,0.1,0.0,0.0,0.0,0.1,0.0,0.0,0.0,0.1
1405689221241931154,127,1405689221241931154,ardrone_base_link,0.0712170456214,0.00972047149845,-0.00440302131573,0.997403758891,1.0,0.0,0.0,0.0,1.0,0.0,0.0,0.0,100000.0,0.00140799954534,-0.0059082582593,-0.00138867227361,1.0,0.0,0.0,0.0,1.0,0.0,0.0,0.0,1.0,-0.150955457427,-0.304047244415,9.73888119459,0.1,0.0,0.0,0.0,0.1,0.0,0.0,0.0,0.1
1405689221243161595,128,1405689221243161595,ardrone_base_link,0.0712083204111,0.00971180648064,-0.00440231581382,0.997404469378,1.0,0.0,0.0,0.0,1.0,0.0,0.0,0.0,100000.0,0.000401109457016,-0.00327679887414,-0.00291810906492,1.0,0.0,0.0,0.0,1.0,0.0,0.0,0.0,1.0,-0.150303472951,-0.305462069437,9.76177073717,0.1,0.0,0.0,0.0,0.1,0.0,0.0,0.0,0.1
1405689221244380846,129,1405689221244380846,ardrone_base_link,0.0712082356579,0.00971242788275,-0.00439361192046,0.997404507757,1.0,0.0,0.0,0.0,1.0,0.0,0.0,0.0,100000.0,0.00140704214573,-0.000860650092363,-0.00229267263785,1.0,0.0,0.0,0.0,1.0,0.0,0.0,0.0,1.0,-0.15138293691,-0.305714868009,9.75599315166,0.1,0.0,0.0,0.0,0.1,0.0,0.0,0.0,0.1
1405689221278532702,130,1405689221278532702,ardrone_base_link,0.0711995281301,0.00971246623942,-0.00439352712901,0.99740512938,1.0,0.0,0.0,0.0,1.0,0.0,0.0,0.0,100000.0,-0.000222522765398,-0.00116128474474,-0.0029965126887,1.0,0.0,0.0,0.0,1.0,0.0,0.0,0.0,1.0,-0.153463592008,-0.305132221058,9.7295719862,0.1,0.0,0.0,0.0,0.1,0.0,0.0,0.0,0.1
1405689221279773760,131,1405689221279773760,ardrone_base_link,0.0711995540447,0.00972116966505,-0.00439414777494,0.997405040006,1.0,0.0,0.0,0.0,1.0,0.0,0.0,0.0,100000.0,-0.000360395759344,0.000418547570007,-0.00221084337682,1.0,0.0,0.0,0.0,1.0,0.0,0.0,0.0,1.0,-0.176688933745,-0.305478753522,9.73227590322,0.1,0.0,0.0,0.0,0.1,0.0,0.0,0.0,0.1
1405689221281202433,132,1405689221281202433,ardrone_base_link,0.0711994950436,0.00973049547191,-0.00438606433757,0.99740498886,1.0,0.0,0.0,0.0,1.0,0.0,0.0,0.0,100000.0,0.000563163310289,-0.00169932469726,-0.000687243416905,1.0,0.0,0.0,0.0,1.0,0.0,0.0,0.0,1.0,-0.176024618745,-0.305452924222,9.73708734512,0.1,0.0,0.0,0.0,0.1,0.0,0.0,0.0,0.1
1405689221282633180,133,1405689221282633180,ardrone_base_link,0.0711994692073,0.00972179100919,-0.0043854436172,0.997405078315,1.0,0.0,0.0,0.0,1.0,0.0,0.0,0.0,100000.0,0.0004957690835,-0.00224211812019,-0.0029937881045,1.0,0.0,0.0,0.0,1.0,0.0,0.0,0.0,1.0,-0.148641380295,-0.304055659473,9.71090041399,0.1,0.0,0.0,0.0,0.1,0.0,0.0,0.0,0.1
1405689221283808226,134,1405689221283808226,ardrone_base_link,0.0711994950436,0.00973049547191,-0.00438606433757,0.99740498886,1.0,0.0,0.0,0.0,1.0,0.0,0.0,0.0,100000.0,0.000250652432442,0.000259604305029,-0.00187212228775,1.0,0.0,0.0,0.0,1.0,0.0,0.0,0.0,1.0,-0.150128180534,-0.303616762161,9.71189109087,0.1,0.0,0.0,0.0,0.1,0.0,0.0,0.0,0.1
1405689221285109404,135,1405689221285109404,ardrone_base_link,0.0711907108957,0.00973115497537,-0.00437727556606,0.997405648051,1.0,0.0,0.0,0.0,1.0,0.0,0.0,0.0,100000.0,0.000322114676237,-0.00208809226751,-0.00316268298775,1.0,0.0,0.0,0.0,1.0,0.0,0.0,0.0,1.0,-0.1533034686,-0.303263347968,9.71723350286,0.1,0.0,0.0,0.0,0.1,0.0,0.0,0.0,0.1
1405689221286463011,136,1405689221286463011,ardrone_base_link,0.0711907108957,0.00973115497537,-0.00437727556606,0.997405648051,1.0,0.0,0.0,0.0,1.0,0.0,0.0,0.0,100000.0,0.000213351115235,-0.00145029276609,-0.00249595195055,1.0,0.0,0.0,0.0,1.0,0.0,0.0,0.0,1.0,-0.150572526641,-0.302673508972,9.71497001648,0.1,0.0,0.0,0.0,0.1,0.0,0.0,0.0,0.1
1405689221287524129,137,1405689221287524129,ardrone_base_link,0.0711906259711,0.00973177624233,-0.00436857140301,0.997405686212,1.0,0.0,0.0,0.0,1.0,0.0,0.0,0.0,100000.0,0.000267319381237,0.000468723475933,-0.000578668434173,1.0,0.0,0.0,0.0,1.0,0.0,0.0,0.0,1.0,-0.15071441438,-0.302309032902,9.71564993858,0.1,0.0,0.0,0.0,0.1,0.0,0.0,0.0,0.1
1405689221288818934,138,1405689221288818934,ardrone_base_link,0.0711906002859,0.00972307177374,-0.004367950757,0.997405775656,1.0,0.0,0.0,0.0,1.0,0.0,0.0,0.0,100000.0,0.000369612127542,-0.0050763450563,-0.00150895211846,1.0,0.0,0.0,0.0,1.0,0.0,0.0,0.0,1.0,-0.150558617152,-0.302036063746,9.71526675224,0.1,0.0,0.0,0.0,0.1,0.0,0.0,0.0,0.1
1405689221290213069,139,1405689221290213069,ardrone_base_link,0.0711905410436,0.00973239749003,-0.00435986749903,0.997405724297,1.0,0.0,0.0,0.0,1.0,0.0,0.0,0.0,100000.0,0.000299859791994,-0.000600878149271,-0.00100307585672,1.0,0.0,0.0,0.0,1.0,0.0,0.0,0.0,1.0,-0.15043028295,-0.302558837831,9.73901320696,0.1,0.0,0.0,0.0,0.1,0.0,0.0,0.0,0.1
1405689221322493044,140,1405689221322493044,ardrone_base_link,0.0711905410436,0.00973239749003,-0.00435986749903,0.997405724297,1.0,0.0,0.0,0.0,1.0,0.0,0.0,0.0,100000.0,0.000273458659649,-0.000547785311937,-0.00163873983547,1.0,0.0,0.0,0.0,1.0,0.0,0.0,0.0,1.0,-0.150101703219,-0.303156471252,9.76175963879,0.1,0.0,0.0,0.0,0.1,0.0,0.0,0.0,0.1
1405689221323930551,141,1405689221323930551,ardrone_base_link,0.0711905154344,0.00972369302122,-0.00435924685224,0.997405813735,1.0,0.0,0.0,0.0,1.0,0.0,0.0,0.0,100000.0,0.000301577150822,-0.0036374591291,-0.00179698504508,1.0,0.0,0.0,0.0,1.0,0.0,0.0,0.0,1.0,-0.15194044821,-0.302409338206,9.7325340867,0.1,0.0,0.0,0.0,0.1,0.0,0.0,0.0,0.1
1405689221325182845,142,1405689221325182845,ardrone_base_link,0.071181748572,0.00973305672308,-0.00435107862351,0.997406383773,1.0,0.0,0.0,0.0,1.0,0.0,0.0,0.0,100000.0,0.000293932855129,-0.000425904989243,-0.00270009506494,1.0,0.0,0.0,0.0,1.0,0.0,0.0,0.0,1.0,-0.176207632571,-0.302096557245,9.70724203587,0.1,0.0,0.0,0.0,0.1,0.0,0.0,0.0,0.1
1405689221326881281,143,1405689221326881281,ardrone_base_link,0.0711818078952,0.00972373107788,-0.00435916196244,0.997406435204,1.0,0.0,0.0,0.0,1.0,0.0,0.0,0.0,100000.0,-0.00225583836436,-0.00636084750295,-0.00222965329885,1.0,0.0,0.0,0.0,1.0,0.0,0.0,0.0,1.0,-0.198415062577,-0.302698608115,9.71514233351,0.1,0.0,0.0,0.0,0.1,0.0,0.0,0.0,0.1
1405689221328122869,144,1405689221328122869,ardrone_base_link,0.0711731086513,0.00972376909752,-0.00435907715324,0.997407056004,1.0,0.0,0.0,0.0,1.0,0.0,0.0,0.0,100000.0,-0.00136677920818,-0.00691644847393,-0.0043995315209,1.0,0.0,0.0,0.0,1.0,0.0,0.0,0.0,1.0,-0.193043261766,-0.302777592838,9.71759974957,0.1,0.0,0.0,0.0,0.1,0.0,0.0,0.0,0.1
1405689221329074273,145,1405689221329074273,ardrone_base_link,0.0711644602639,0.00971448268514,-0.00436707583931,0.9974077286,1.0,0.0,0.0,0.0,1.0,0.0,0.0,0.0,100000.0,-0.00505794584751,-0.00578055903316,-0.00445852754638,1.0,0.0,0.0,0.0,1.0,0.0,0.0,0.0,1.0,-0.167861263826,-0.302374820039,9.71545600891,0.1,0.0,0.0,0.0,0.1,0.0,0.0,0.0,0.1
1405689221330511026,146,1405689221330511026,ardrone_base_link,0.0711557270088,0.00970581631841,-0.00436637068713,0.997408439131,1.0,0.0,0.0,0.0,1.0,0.0,0.0,0.0,100000.0,-0.00271401926875,-0.00402051955462,-0.00456172972918,1.0,0.0,0.0,0.0,1.0,0.0,0.0,0.0,1.0,-0.147729313932,-0.301890141889,9.71523579359,0.1,0.0,0.0,0.0,0.1,0.0,0.0,0.0,0.1
1405689221331698493,147,1405689221331698493,ardrone_base_link,0.0711470020452,0.00969715094066,-0.00436566584092,0.997409148908,1.0,0.0,0.0,0.0,1.0,0.0,0.0,0.0,100000.0,-0.00116426497698,-0.00337491184473,-0.00477098254487,1.0,0.0,0.0,0.0,1.0,0.0,0.0,0.0,1.0,-0.153367302567,-0.301494707167,9.71539818048,0.1,0.0,0.0,0.0,0.1,0.0,0.0,0.0,0.1
1405689221332209158,148,1405689221332209158,ardrone_base_link,0.0711471124458,0.00970523351444,-0.00437499022666,0.997409021562,1.0,0.0,0.0,0.0,1.0,0.0,0.0,0.0,100000.0,-0.00388127565384,3.92012298107e-05,-0.003817233257,1.0,0.0,0.0,0.0,1.0,0.0,0.0,0.0,1.0,-0.156810539961,-0.300917007029,9.71561839581,0.1,0.0,0.0,0.0,0.1,0.0,0.0,0.0,0.1
1405689221334758780,149,1405689221334758780,ardrone_base_link,0.0711383201799,0.00970589251904,-0.00436620130012,0.997409680793,1.0,0.0,0.0,0.0,1.0,0.0,0.0,0.0,100000.0,0.000882185995579,-0.00329715013504,-0.00271911732852,1.0,0.0,0.0,0.0,1.0,0.0,0.0,0.0,1.0,-0.155146530643,-0.300334396586,9.71539584398,0.1,0.0,0.0,0.0,0.1,0.0,0.0,0.0,0.1
1405689221339740133,150,1405689221339740133,ardrone_base_link,0.0711383790996,0.00969656824308,-0.00437428538152,0.997409731861,1.0,0.0,0.0,0.0,1.0,0.0,0.0,0.0,100000.0,-0.00316536426544,-0.00187892839313,-0.00361660961062,1.0,0.0,0.0,0.0,1.0,0.0,0.0,0.0,1.0,-0.155226428062,-0.300083514675,9.7154717803,0.1,0.0,0.0,0.0,0.1,0.0,0.0,0.0,0.1
1405689221356178433,151,1405689221356178433,ardrone_base_link,0.071129679827,0.00969660639463,-0.00437420080923,0.997410352282,1.0,0.0,0.0,0.0,1.0,0.0,0.0,0.0,100000.0,-0.00069809705019,-0.00237994268537,-0.00278597604483,1.0,0.0,0.0,0.0,1.0,0.0,0.0,0.0,1.0,-0.154118834808,-0.300224471465,9.71550098658,0.1,0.0,0.0,0.0,0.1,0.0,0.0,0.0,0.1
1405689221356798569,152,1405689221356798569,ardrone_base_link,0.0711295952039,0.00969722712898,-0.00436549660513,0.997410390417,1.0,0.0,0.0,0.0,1.0,0.0,0.0,0.0,100000.0,0.00153445824981,-0.0027365128044,-0.00217539723963,1.0,0.0,0.0,0.0,1.0,0.0,0.0,0.0,1.0,-0.153048780747,-0.300734577328,9.71546009779,0.1,0.0,0.0,0.0,0.1,0.0,0.0,0.0,0.1
1405689221357344908,153,1405689221357344908,ardrone_base_link,0.0711295952039,0.00969722712898,-0.00436549660513,0.997410390417,1.0,0.0,0.0,0.0,1.0,0.0,0.0,0.0,100000.0,-0.00295732170343,-0.0020439773798,-0.002750759013,1.0,0.0,0.0,0.0,1.0,0.0,0.0,0.0,1.0,-0.151869796403,-0.301477731019,9.7154741168,0.1,0.0,0.0,0.0,0.1,0.0,0.0,0.0,0.1
1405689221359655612,154,1405689221359655612,ardrone_base_link,0.0711208876247,0.0096972652402,-0.00436541194638,0.997411011353,1.0,0.0,0.0,0.0,1.0,0.0,0.0,0.0,100000.0,-0.000255402177572,-0.00211608782411,-0.00165925873443,1.0,0.0,0.0,0.0,1.0,0.0,0.0,0.0,1.0,-0.151167093404,-0.302317356691,9.71547937393,0.1,0.0,0.0,0.0,0.1,0.0,0.0,0.0,0.1
1405689221364488128,155,1405689221364488128,ardrone_base_link,0.0711209722481,0.00969664458184,-0.0043741161559,0.997410973219,1.0,0.0,0.0,0.0,1.0,0.0,0.0,0.0,100000.0,-0.00266765803099,4.64208424091e-05,-0.0039396006614,1.0,0.0,0.0,0.0,1.0,0.0,0.0,0.0,1.0,-0.150927601941,-0.303098770604,9.71547703743,0.1,0.0,0.0,0.0,0.1,0.0,0.0,0.0,0.1
1405689221368808913,156,1405689221368808913,ardrone_base_link,0.0711122729647,0.00969668273191,-0.00437403158294,0.997411593489,1.0,0.0,0.0,0.0,1.0,0.0,0.0,0.0,100000.0,-0.00177019461989,-0.0031402297318,-0.00502886390314,1.0,0.0,0.0,0.0,1.0,0.0,0.0,0.0,1.0,-0.150997879542,-0.30362373516,9.71547528505,0.1,0.0,0.0,0.0,0.1,0.0,0.0,0.0,0.1
1405689221374933678,157,1405689221374933678,ardrone_base_link,0.0711034807509,0.0096973414241,-0.0043652427086,0.997412252406,1.0,0.0,0.0,0.0,1.0,0.0,0.0,0.0,100000.0,0.00192204490304,-0.00117465108633,-0.00467077223584,1.0,0.0,0.0,0.0,1.0,0.0,0.0,0.0,1.0,-0.15217778571,-0.303121022135,9.69206587076,0.1,0.0,0.0,0.0,0.1,0.0,0.0,0.0,0.1
1405689221378827521,158,1405689221378827521,ardrone_base_link,0.0710947474401,0.00968867500202,-0.00436453823713,0.997412962252,1.0,0.0,0.0,0.0,1.0,0.0,0.0,0.0,100000.0,0.000193383544683,-0.00631393119693,-0.00460544135422,1.0,0.0,0.0,0.0,1.0,0.0,0.0,0.0,1.0,-0.15341129452,-0.30228170678,9.66918333769,0.1,0.0,0.0,0.0,0.1,0.0,0.0,0.0,0.1
1405689221383988700,159,1405689221383988700,ardrone_base_link,0.0710860224177,0.00968000853132,-0.00436383399755,0.997413671354,1.0,0.0,0.0,0.0,1.0,0.0,0.0,0.0,100000.0,-0.00145617127419,-0.00654819980264,-0.00243934523314,1.0,0.0,0.0,0.0,1.0,0.0,0.0,0.0,1.0,-0.176193777844,-0.30237929225,9.6754761219,0.1,0.0,0.0,0.0,0.1,0.0,0.0,0.0,0.1
1405689221389028155,160,1405689221389028155,ardrone_base_link,0.0710859966937,0.00967130503097,-0.00436321433495,0.997413760329,1.0,0.0,0.0,0.0,1.0,0.0,0.0,0.0,100000.0,-0.00167331472039,-0.00599010288715,-0.00176478829235,1.0,0.0,0.0,0.0,1.0,0.0,0.0,0.0,1.0,-0.198710301518,-0.302485493571,9.67898554802,0.1,0.0,0.0,0.0,0.1,0.0,0.0,0.0,0.1
1405689221393932384,161,1405689221393932384,ardrone_base_link,0.0710860810906,0.00967068467709,-0.00437191856846,0.997413722214,1.0,0.0,0.0,0.0,1.0,0.0,0.0,0.0,100000.0,-0.00568454712629,-0.00397547706962,-0.0034817410633,1.0,0.0,0.0,0.0,1.0,0.0,0.0,0.0,1.0,-0.193182064593,-0.302876583859,9.70061221123,0.1,0.0,0.0,0.0,0.1,0.0,0.0,0.0,0.1
1405689221399492468,162,1405689221399492468,ardrone_base_link,0.0710861913554,0.00967876784087,-0.00438124220327,0.997413595039,1.0,0.0,0.0,0.0,1.0,0.0,0.0,0.0,100000.0,-0.00504031777382,-0.000784944742918,-0.0016663299175,1.0,0.0,0.0,0.0,1.0,0.0,0.0,0.0,1.0,-0.191285226494,-0.302668908983,9.70044982433,0.1,0.0,0.0,0.0,0.1,0.0,0.0,0.0,0.1
1405689221413302208,163,1405689221413302208,ardrone_base_link,0.0710775941608,0.00968689035192,-0.00439048160097,0.997414088248,1.0,0.0,0.0,0.0,1.0,0.0,0.0,0.0,100000.0,-0.00259265303612,-0.000929430127144,-0.00349239981733,1.0,0.0,0.0,0.0,1.0,0.0,0.0,0.0,1.0,-0.193936261907,-0.302140549198,9.69514070749,0.1,0.0,0.0,0.0,0.1,0.0,0.0,0.0,0.1
1405689221413929550,164,1405689221413929550,ardrone_base_link,0.0710689793809,0.00968630845858,-0.00439910109545,0.997414669788,1.0,0.0,0.0,0.0,1.0,0.0,0.0,0.0,100000.0,-0.00420661270618,-0.00213484838605,-0.00314680254087,1.0,0.0,0.0,0.0,1.0,0.0,0.0,0.0,1.0,-0.192888486758,-0.302130655572,9.72095905542,0.1,0.0,0.0,0.0,0.1,0.0,0.0,0.0,0.1
1405689221414592469,165,1405689221414592469,ardrone_base_link,0.0710688948502,0.00968692864473,-0.00439039711308,0.997414708139,1.0,0.0,0.0,0.0,1.0,0.0,0.0,0.0,100000.0,0.00123101845384,-0.00581089779735,-0.00162408314645,1.0,0.0,0.0,0.0,1.0,0.0,0.0,0.0,1.0,-0.192570941523,-0.30124453716,9.71971194744,0.1,0.0,0.0,0.0,0.1,0.0,0.0,0.0,0.1
1405689221418814124,166,1405689221418814124,ardrone_base_link,0.0710688688992,0.00967822409736,-0.00438977753119,0.997414797216,1.0,0.0,0.0,0.0,1.0,0.0,0.0,0.0,100000.0,-0.00163546204567,-0.00671150209382,-0.00336785241961,1.0,0.0,0.0,0.0,1.0,0.0,0.0,0.0,1.0,-0.190991064534,-0.277930590883,9.71568264961,0.1,0.0,0.0,0.0,0.1,0.0,0.0,0.0,0.1
1405689221425341177,167,1405689221425341177,ardrone_base_link,0.0710687585591,0.00967014079032,-0.00438045377915,0.997414924472,1.0,0.0,0.0,0.0,1.0,0.0,0.0,0.0,100000.0,-0.00135513022542,-0.00641602650285,-0.00159476790577,1.0,0.0,0.0,0.0,1.0,0.0,0.0,0.0,1.0,-0.189907420427,-0.278363446146,9.71788597107,0.1,0.0,0.0,0.0,0.1,0.0,0.0,0.0,0.1
1405689221429017494,168,1405689221429017494,ardrone_base_link,0.0710687585591,0.00967014079032,-0.00438045377915,0.997414924472,1.0,0.0,0.0,0.0,1.0,0.0,0.0,0.0,100000.0,-0.00160241127014,-0.00367761030793,-0.000871052034199,1.0,0.0,0.0,0.0,1.0,0.0,0.0,0.0,1.0,-0.189864030853,-0.306398112327,9.71586664915,0.1,0.0,0.0,0.0,0.1,0.0,0.0,0.0,0.1
1405689221433980279,169,1405689221433980279,ardrone_base_link,0.0710688688992,0.00967822409736,-0.00438977753119,0.997414797216,1.0,0.0,0.0,0.0,1.0,0.0,0.0,0.0,100000.0,-0.00181949883699,-0.00062173610786,-0.00198501674458,1.0,0.0,0.0,0.0,1.0,0.0,0.0,0.0,1.0,-0.167180209979,-0.304398796707,9.7158976078,0.1,0.0,0.0,0.0,0.1,0.0,0.0,0.0,0.1
1405689221438591924,170,1405689221438591924,ardrone_base_link,0.0710687844365,0.00967884430103,-0.0043810732883,0.997414835486,1.0,0.0,0.0,0.0,1.0,0.0,0.0,0.0,100000.0,0.00121375918388,-0.00110609456897,-0.000759496819228,1.0,0.0,0.0,0.0,1.0,0.0,0.0,0.0,1.0,-0.145522296056,-0.300667037815,9.71525915861,0.1,0.0,0.0,0.0,0.1,0.0,0.0,0.0,0.1
1405689221443849012,171,1405689221443849012,ardrone_base_link,0.0710687844365,0.00967884430103,-0.0043810732883,0.997414835486,1.0,0.0,0.0,0.0,1.0,0.0,0.0,0.0,100000.0,0.000515166670084,-0.00209119915962,-0.00157192745246,1.0,0.0,0.0,0.0,1.0,0.0,0.0,0.0,1.0,-0.174073858559,-0.303932080418,9.71593382359,0.1,0.0,0.0,0.0,0.1,0.0,0.0,0.0,0.1
1405689221455771378,172,1405689221455771378,ardrone_base_link,0.0710600768185,0.00967888254824,-0.00438098879004,0.997415455892,1.0,0.0,0.0,0.0,1.0,0.0,0.0,0.0,100000.0,-0.00130496546626,-0.00580737367272,-0.00323087349534,1.0,0.0,0.0,0.0,1.0,0.0,0.0,0.0,1.0,-0.199008625373,-0.304365063459,9.71658453941,0.1,0.0,0.0,0.0,0.1,0.0,0.0,0.0,0.1
1405689221455898612,173,1405689221455898612,ardrone_base_link,0.0710600509403,0.00967017903212,-0.00438036935688,0.997415544877,1.0,0.0,0.0,0.0,1.0,0.0,0.0,0.0,100000.0,-0.00439388304949,-0.00674417987466,-0.00215910049155,1.0,0.0,0.0,0.0,1.0,0.0,0.0,0.0,1.0,-0.169256739691,-0.281461885199,9.69343389273,0.1,0.0,0.0,0.0,0.1,0.0,0.0,0.0,0.1
1405689221458501106,174,1405689221458501106,ardrone_base_link,0.0710513840752,0.00965218910277,-0.00438775048144,0.997416304114,1.0,0.0,0.0,0.0,1.0,0.0,0.0,0.0,100000.0,-0.00469436123967,-0.00636233761907,-0.00428477395326,1.0,0.0,0.0,0.0,1.0,0.0,0.0,0.0,1.0,-0.144289161451,-0.281485432759,9.69343856573,0.1,0.0,0.0,0.0,0.1,0.0,0.0,0.0,0.1
1405689221463812994,175,1405689221463812994,ardrone_base_link,0.0710427606723,0.00965160745092,-0.0043963702176,0.99741688604,1.0,0.0,0.0,0.0,1.0,0.0,0.0,0.0,100000.0,-0.00363610312343,-0.00367624685168,-0.00454501528293,1.0,0.0,0.0,0.0,1.0,0.0,0.0,0.0,1.0,-0.17342662923,-0.31008920148,9.72148009539,0.1,0.0,0.0,0.0,0.1,0.0,0.0,0.0,0.1
1405689221468892226,176,1405689221468892226,ardrone_base_link,0.0710339688082,0.00965226571304,-0.00438758194999,0.997417544545,1.0,0.0,0.0,0.0,1.0,0.0,0.0,0.0,100000.0,0.000473324209452,-0.00317743420601,-0.0044730566442,1.0,0.0,0.0,0.0,1.0,0.0,0.0,0.0,1.0,-0.19855543524,-0.306865485758,9.71939184666,0.1,0.0,0.0,0.0,0.1,0.0,0.0,0.0,0.1
1405689221473989429,177,1405689221473989429,ardrone_base_link,0.0710252954355,0.00966100751954,-0.00438811689336,0.997418075218,1.0,0.0,0.0,0.0,1.0,0.0,0.0,0.0,100000.0,0.00133202970028,-0.000215250998735,-0.00478312000632,1.0,0.0,0.0,0.0,1.0,0.0,0.0,0.0,1.0,-0.192097781599,-0.300926060975,9.71477608681,0.1,0.0,0.0,0.0,0.1,0.0,0.0,0.0,0.1
1405689221478536840,178,1405689221478536840,ardrone_base_link,0.0710253214013,0.0096697120954,-0.00438873609611,0.997417986294,1.0,0.0,0.0,0.0,1.0,0.0,0.0,0.0,100000.0,-0.0016016587615,-0.000667214393616,-0.00250274315476,1.0,0.0,0.0,0.0,1.0,0.0,0.0,0.0,1.0,-0.189991370216,-0.301977888495,9.71671363115,0.1,0.0,0.0,0.0,0.1,0.0,0.0,0.0,0.1
1405689221484486107,179,1405689221484486107,ardrone_base_link,0.0710166397138,0.00967845395243,-0.00438927073018,0.997418517331,1.0,0.0,0.0,0.0,1.0,0.0,0.0,0.0,100000.0,-0.000898391008377,-0.00270704901777,-0.00315784756094,1.0,0.0,0.0,0.0,1.0,0.0,0.0,0.0,1.0,-0.192588666081,-0.300373058394,9.6928357482,0.1,0.0,0.0,0.0,0.1,0.0,0.0,0.0,0.1
1405689221488679507,180,1405689221488679507,ardrone_base_link,0.0710166656695,0.00968715853222,-0.00438988985627,0.997418428256,1.0,0.0,0.0,0.0,1.0,0.0,0.0,0.0,100000.0,-0.00347752124071,0.001205150038,-0.00161072984338,1.0,0.0,0.0,0.0,1.0,0.0,0.0,0.0,1.0,-0.192593284324,-0.300249734893,9.6702067256,0.1,0.0,0.0,0.0,0.1,0.0,0.0,0.0,0.1
1405689221494359077,181,1405689221494359077,ardrone_base_link,0.0710166656695,0.00968715853222,-0.00438988985627,0.997418428256,1.0,0.0,0.0,0.0,1.0,0.0,0.0,0.0,100000.0,-0.00127218663692,-0.00245288014412,-0.00268842885271,1.0,0.0,0.0,0.0,1.0,0.0,0.0,0.0,1.0,-0.168879613653,-0.300465003401,9.67516419888,0.1,0.0,0.0,0.0,0.1,0.0,0.0,0.0,0.1
1405689221508061112,182,1405689221508061112,ardrone_base_link,0.0710166070032,0.00969648285961,-0.00438180470822,0.997418377381,1.0,0.0,0.0,0.0,1.0,0.0,0.0,0.0,100000.0,0.00209680944681,0.00063219293952,-0.00209629815072,1.0,0.0,0.0,0.0,1.0,0.0,0.0,0.0,1.0,-0.145660396107,-0.301101262122,9.67782255411,0.1,0.0,0.0,0.0,0.1,0.0,0.0,0.0,0.1
1405689221508373644,183,1405689221508373644,ardrone_base_link,0.0710166070032,0.00969648285961,-0.00438180470822,0.997418377381,1.0,0.0,0.0,0.0,1.0,0.0,0.0,0.0,100000.0,7.87936151028e-05,-8.74735414982e-05,-0.00115353940055,1.0,0.0,0.0,0.0,1.0,0.0,0.0,0.0,1.0,-0.150654048659,-0.301604979113,9.67630149126,0.1,0.0,0.0,0.0,0.1,0.0,0.0,0.0,0.1
1405689221508941571,184,1405689221508941571,ardrone_base_link,0.0710166070032,0.00969648285961,-0.00438180470822,0.997418377381,1.0,0.0,0.0,0.0,1.0,0.0,0.0,0.0,100000.0,-0.00137673702557,-0.00385373458266,-0.00165837444365,1.0,0.0,0.0,0.0,1.0,0.0,0.0,0.0,1.0,-0.153021901846,-0.301882712543,9.67672965527,0.1,0.0,0.0,0.0,0.1,0.0,0.0,0.0,0.1
1405689221514114204,185,1405689221514114204,ardrone_base_link,0.0710165811289,0.00968777828033,-0.00438118558169,0.997418466527,1.0,0.0,0.0,0.0,1.0,0.0,0.0,0.0,100000.0,-0.00176810473204,-0.00464547052979,-0.000778867863119,1.0,0.0,0.0,0.0,1.0,0.0,0.0,0.0,1.0,-0.15133337751,-0.302179740369,9.67664320469,0.1,0.0,0.0,0.0,0.1,0.0,0.0,0.0,0.1
1405689221518711424,186,1405689221518711424,ardrone_base_link,0.0710166397138,0.00967845395243,-0.00438927073018,0.997418517331,1.0,0.0,0.0,0.0,1.0,0.0,0.0,0.0,100000.0,-0.00316188111901,-0.00476287305355,-0.00161524303257,1.0,0.0,0.0,0.0,1.0,0.0,0.0,0.0,1.0,-0.151278086379,-0.303033512831,9.70022960901,0.1,0.0,0.0,0.0,0.1,0.0,0.0,0.0,0.1
1405689221523585450,187,1405689221523585450,ardrone_base_link,0.0710166137558,0.00966975040951,-0.00438865167757,0.99741860632,1.0,0.0,0.0,0.0,1.0,0.0,0.0,0.0,100000.0,-0.000706072896719,-0.00483964383602,-0.00179420993663,1.0,0.0,0.0,0.0,1.0,0.0,0.0,0.0,1.0,-0.151183905266,-0.303635180369,9.7229637742,0.1,0.0,0.0,0.0,0.1,0.0,0.0,0.0,0.1
1405689221529070336,188,1405689221529070336,ardrone_base_link,0.0710165552491,0.0096790737003,-0.00438056645483,0.997418555598,1.0,0.0,0.0,0.0,1.0,0.0,0.0,0.0,100000.0,0.00187160086352,-0.000426445156336,-0.00132306711748,1.0,0.0,0.0,0.0,1.0,0.0,0.0,0.0,1.0,-0.175372588634,-0.303444791958,9.71774344444,0.1,0.0,0.0,0.0,0.1,0.0,0.0,0.0,0.1
1405689221535364469,189,1405689221535364469,ardrone_base_link,0.0710164965854,0.00968839800922,-0.00437248156618,0.997418504722,1.0,0.0,0.0,0.0,1.0,0.0,0.0,0.0,100000.0,-9.98564064503e-05,0.00051724165678,-0.00138650927693,1.0,0.0,0.0,0.0,1.0,0.0,0.0,0.0,1.0,-0.198770941049,-0.303107441217,9.71527142525,0.1,0.0,0.0,0.0,0.1,0.0,0.0,0.0,0.1
1405689221538674803,190,1405689221538674803,ardrone_base_link,0.0710077972362,0.00968843614503,-0.00437239706515,0.99741912408,1.0,0.0,0.0,0.0,1.0,0.0,0.0,0.0,100000.0,-0.00129966437817,-0.00256195291877,-0.00286448770203,1.0,0.0,0.0,0.0,1.0,0.0,0.0,0.0,1.0,-0.193375209346,-0.303266232088,9.74017853737,0.1,0.0,0.0,0.0,0.1,0.0,0.0,0.0,0.1
1405689221544101333,191,1405689221544101333,ardrone_base_link,0.0710079335219,0.00970522462307,-0.00438233911314,0.997418907529,1.0,0.0,0.0,0.0,1.0,0.0,0.0,0.0,100000.0,-0.00179735571146,0.000897131860256,-0.00231525255367,1.0,0.0,0.0,0.0,1.0,0.0,0.0,0.0,1.0,-0.190015684441,-0.303693811968,9.76257741451,0.1,0.0,0.0,0.0,0.1,0.0,0.0,0.0,0.1
1405689221553914505,192,1405689221553914505,ardrone_base_link,0.0709992258683,0.00970526288133,-0.00438225438458,0.997419527403,1.0,0.0,0.0,0.0,1.0,0.0,0.0,0.0,100000.0,-0.00310973450541,-0.00259094685316,-0.00300667248666,1.0,0.0,0.0,0.0,1.0,0.0,0.0,0.0,1.0,-0.191307551041,-0.303660681099,9.75693826675,0.1,0.0,0.0,0.0,0.1,0.0,0.0,0.0,0.1
1405689221555293769,193,1405689221555293769,ardrone_base_link,0.0709992517334,0.00971396746994,-0.00438287335852,0.997419438105,1.0,0.0,0.0,0.0,1.0,0.0,0.0,0.0,100000.0,-0.000670187175274,-0.00194098439533,-0.00358483940363,1.0,0.0,0.0,0.0,1.0,0.0,0.0,0.0,1.0,-0.190012325719,-0.303700146079,9.75373959541,0.1,0.0,0.0,0.0,0.1,0.0,0.0,0.0,0.1
1405689221558610202,194,1405689221558610202,ardrone_base_link,0.0709991669614,0.00971458704761,-0.00437416933454,0.997419476315,1.0,0.0,0.0,0.0,1.0,0.0,0.0,0.0,100000.0,0.00181363895535,-0.00162476673722,-0.00160029437393,1.0,0.0,0.0,0.0,1.0,0.0,0.0,0.0,1.0,-0.188363996521,-0.281214179471,9.7565912962,0.1,0.0,0.0,0.0,0.1,0.0,0.0,0.0,0.1
1405689221564625619,195,1405689221564625619,ardrone_base_link,0.0709903745225,0.00971524475394,-0.00436538023511,0.997420134246,1.0,0.0,0.0,0.0,1.0,0.0,0.0,0.0,100000.0,-0.000102341175079,-0.00398562848568,-0.00312117114663,1.0,0.0,0.0,0.0,1.0,0.0,0.0,0.0,1.0,-0.187305907905,-0.281556477025,9.75610355139,0.1,0.0,0.0,0.0,0.1,0.0,0.0,0.0,0.1
1405689221569158918,196,1405689221569158918,ardrone_base_link,0.0709903745225,0.00971524475394,-0.00436538023511,0.997420134246,1.0,0.0,0.0,0.0,1.0,0.0,0.0,0.0,100000.0,0.00128127634525,-0.00437522679567,-0.00306935305707,1.0,0.0,0.0,0.0,1.0,0.0,0.0,0.0,1.0,-0.1876358293,-0.309038542211,9.75489032269,0.1,0.0,0.0,0.0,0.1,0.0,0.0,0.0,0.1
1405689221573965131,197,1405689221573965131,ardrone_base_link,0.0709817008655,0.00972398638932,-0.00436591424941,0.997420664025,1.0,0.0,0.0,0.0,1.0,0.0,0.0,0.0,100000.0,-0.00268426537514,-0.000718124269042,-0.00183867616579,1.0,0.0,0.0,0.0,1.0,0.0,0.0,0.0,1.0,-0.18792017065,-0.283362666145,9.73250546455,0.1,0.0,0.0,0.0,0.1,0.0,0.0,0.0,0.1
1405689221578909749,198,1405689221578909749,ardrone_base_link,0.0709817008655,0.00972398638932,-0.00436591424941,0.997420664025,1.0,0.0,0.0,0.0,1.0,0.0,0.0,0.0,100000.0,-0.00453800335526,-0.00124619528651,-0.00344233354554,1.0,0.0,0.0,0.0,1.0,0.0,0.0,0.0,1.0,-0.187739584595,-0.257240499929,9.73439335823,0.1,0.0,0.0,0.0,0.1,0.0,0.0,0.0,0.1
1405689221584180349,199,1405689221584180349,ardrone_base_link,0.0709818115019,0.00973207154377,-0.00437523736531,0.997420536443,1.0,0.0,0.0,0.0,1.0,0.0,0.0,0.0,100000.0,-0.00635551707819,-0.00168494135141,-0.00152050238103,1.0,0.0,0.0,0.0,1.0,0.0,0.0,0.0,1.0,-0.188497158885,-0.265284072608,9.73925269842,0.1,0.0,0.0,0.0,0.1,0.0,0.0,0.0,0.1
1405689221589268506,200,1405689221589268506,ardrone_base_link,0.070981922277,0.00974015671475,-0.00438456021958,0.997420408699,1.0,0.0,0.0,0.0,1.0,0.0,0.0,0.0,100000.0,-0.00788350403309,-0.000977829098701,-0.000840092543513,1.0,0.0,0.0,0.0,1.0,0.0,0.0,0.0,1.0,-0.190083844587,-0.266937896237,9.71346530914,0.1,0.0,0.0,0.0,0.1,0.0,0.0,0.0,0.1
1405689221593795813,201,1405689221593795813,ardrone_base_link,0.0709733585954,0.00973025166866,-0.0044012647767,0.997421041206,1.0,0.0,0.0,0.0,1.0,0.0,0.0,0.0,100000.0,-0.00684031844139,-0.00715153291821,-0.00336036691442,1.0,0.0,0.0,0.0,1.0,0.0,0.0,0.0,1.0,-0.190813745931,-0.287553821504,9.71361835003,0.1,0.0,0.0,0.0,0.1,0.0,0.0,0.0,0.1
1405689221607323777,202,1405689221607323777,ardrone_base_link,0.0709734174222,0.0097209276951,-0.00440935033071,0.997421092224,1.0,0.0,0.0,0.0,1.0,0.0,0.0,0.0,100000.0,-0.00440087961033,-0.00638795271516,-0.00306680658832,1.0,0.0,0.0,0.0,1.0,0.0,0.0,0.0,1.0,-0.19112809673,-0.308664774895,9.71767860651,0.1,0.0,0.0,0.0,0.1,0.0,0.0,0.0,0.1
1405689221610083470,203,1405689221610083470,ardrone_base_link,0.0709646332149,0.00972158544724,-0.00440056124273,0.997421749647,1.0,0.0,0.0,0.0,1.0,0.0,0.0,0.0,100000.0,-0.00191166996956,-0.00574313849211,-0.00539954472333,1.0,0.0,0.0,0.0,1.0,0.0,0.0,0.0,1.0,-0.190466830134,-0.279201666266,9.71679073572,0.1,0.0,0.0,0.0,0.1,0.0,0.0,0.0,0.1
1405689221610697317,204,1405689221610697317,ardrone_base_link,0.0709558406976,0.00972224306416,-0.00439177232177,0.997422407507,1.0,0.0,0.0,0.0,1.0,0.0,0.0,0.0,100000.0,0.000528443604708,-0.00407914817333,-0.00498139765114,1.0,0.0,0.0,0.0,1.0,0.0,0.0,0.0,1.0,-0.190043503419,-0.253358931094,9.71864533424,0.1,0.0,0.0,0.0,0.1,0.0,0.0,0.0,0.1
1405689221619963908,205,1405689221619963908,ardrone_base_link,0.0709470564673,0.00972290050959,-0.00438298321083,0.997423064623,1.0,0.0,0.0,0.0,1.0,0.0,0.0,0.0,100000.0,0.00138916831929,-0.00317554920912,-0.00275798048824,1.0,0.0,0.0,0.0,1.0,0.0,0.0,0.0,1.0,-0.21327961497,-0.260224906728,9.7184315443,0.1,0.0,0.0,0.0,0.1,0.0,0.0,0.0,0.1
1405689221619996844,206,1405689221619996844,ardrone_base_link,0.0709469974003,0.00973222425153,-0.00437489767352,0.997423013391,1.0,0.0,0.0,0.0,1.0,0.0,0.0,0.0,100000.0,0.000265713781118,-0.00259391218424,-0.00154828478117,1.0,0.0,0.0,0.0,1.0,0.0,0.0,0.0,1.0,-0.235932604969,-0.263777539879,9.71915878057,0.1,0.0,0.0,0.0,0.1,0.0,0.0,0.0,0.1
1405689221623870960,207,1405689221623870960,ardrone_base_link,0.0709470231779,0.00974092887054,-0.00437551619151,0.997422923872,1.0,0.0,0.0,0.0,1.0,0.0,0.0,0.0,100000.0,-0.00185528770089,-0.00244843587279,-0.00185226462781,1.0,0.0,0.0,0.0,1.0,0.0,0.0,0.0,1.0,-0.231163220108,-0.286434965581,9.71792218685,0.1,0.0,0.0,0.0,0.1,0.0,0.0,0.0,0.1
1405689221630543960,208,1405689221630543960,ardrone_base_link,0.070947048947,0.00974963245119,-0.00437613463543,0.997422834288,1.0,0.0,0.0,0.0,1.0,0.0,0.0,0.0,100000.0,-0.00195045396686,-0.00285449251533,-0.00215809233487,1.0,0.0,0.0,0.0,1.0,0.0,0.0,0.0,1.0,-0.229450637102,-0.310182917118,9.69336671829,0.1,0.0,0.0,0.0,0.1,0.0,0.0,0.0,0.1
1405689221634737251,209,1405689221634737251,ardrone_base_link,0.0709383670268,0.00975837527821,-0.0043766679605,0.99742336396,1.0,0.0,0.0,0.0,1.0,0.0,0.0,0.0,100000.0,-0.00266731530428,-0.000923544168472,-0.00302039878443,1.0,0.0,0.0,0.0,1.0,0.0,0.0,0.0,1.0,-0.208541663364,-0.305842481181,9.67034574747,0.1,0.0,0.0,0.0,0.1,0.0,0.0,0.0,0.1
1405689221639485056,210,1405689221639485056,ardrone_base_link,0.0709296850942,0.00976711707691,-0.00437720105921,0.997423893491,1.0,0.0,0.0,0.0,1.0,0.0,0.0,0.0,100000.0,-0.000676799565554,-8.43964517117e-05,-0.00396092748269,1.0,0.0,0.0,0.0,1.0,0.0,0.0,0.0,1.0,-0.184878282249,-0.304257821664,9.67569283247,0.1,0.0,0.0,0.0,0.1,0.0,0.0,0.0,0.1
1405689221644606075,211,1405689221644606075,ardrone_base_link,0.0709296850942,0.00976711707691,-0.00437720105921,0.997423893491,1.0,0.0,0.0,0.0,1.0,0.0,0.0,0.0,100000.0,-0.000874720513821,-0.00359294936061,-0.00166302546859,1.0,0.0,0.0,0.0,1.0,0.0,0.0,0.0,1.0,-0.189456895366,-0.306129505858,9.6787676692,0.1,0.0,0.0,0.0,0.1,0.0,0.0,0.0,0.1
1405689221649354410,212,1405689221649354410,ardrone_base_link,0.0709297961582,0.00977520273219,-0.00438652348562,0.997423765428,1.0,0.0,0.0,0.0,1.0,0.0,0.0,0.0,100000.0,-0.00172747299075,-0.000899069011211,-0.00431263353676,1.0,0.0,0.0,0.0,1.0,0.0,0.0,0.0,1.0,-0.191330496222,-0.305194649473,9.6771905303,0.1,0.0,0.0,0.0,0.1,0.0,0.0,0.0,0.1
1405689221656907154,213,1405689221656907154,ardrone_base_link,0.0709210967632,0.00977524099047,-0.00438643822749,0.99742438403,1.0,0.0,0.0,0.0,1.0,0.0,0.0,0.0,100000.0,-0.00410039722919,-0.00374292954803,-0.00391688477248,1.0,0.0,0.0,0.0,1.0,0.0,0.0,0.0,1.0,-0.189208331704,-0.304241575673,9.67757897377,0.1,0.0,0.0,0.0,0.1,0.0,0.0,0.0,0.1
1405689221660930287,214,1405689221660930287,ardrone_base_link,0.0709124743661,0.00977466044567,-0.00439505721929,0.997424964829,1.0,0.0,0.0,0.0,1.0,0.0,0.0,0.0,100000.0,-0.00312194228172,-0.00495058298111,-0.00479190144688,1.0,0.0,0.0,0.0,1.0,0.0,0.0,0.0,1.0,-0.189366611466,-0.302833687142,9.67750245333,0.1,0.0,0.0,0.0,0.1,0.0,0.0,0.0,0.1
1405689221687266206,215,1405689221687266206,ardrone_base_link,0.0709037749607,0.00977469877838,-0.00439497196588,0.99742558328,1.0,0.0,0.0,0.0,1.0,0.0,0.0,0.0,100000.0,-0.00172023486812,-0.00305485725403,-0.00509980786592,1.0,0.0,0.0,0.0,1.0,0.0,0.0,0.0,1.0,-0.189482998475,-0.301824409515,9.67766776085,0.1,0.0,0.0,0.0,0.1,0.0,0.0,0.0,0.1
1405689221687829865,216,1405689221687829865,ardrone_base_link,0.0708950672488,0.00977473714692,-0.00439488663079,0.997426202245,1.0,0.0,0.0,0.0,1.0,0.0,0.0,0.0,100000.0,-0.000977721065283,-0.0051878914237,-0.00371339824051,1.0,0.0,0.0,0.0,1.0,0.0,0.0,0.0,1.0,-0.190389159694,-0.30076520741,9.67753107548,0.1,0.0,0.0,0.0,0.1,0.0,0.0,0.0,0.1
1405689221689701828,217,1405689221689701828,ardrone_base_link,0.0708862825273,0.00977539408916,-0.0043860970289,0.997426858859,1.0,0.0,0.0,0.0,1.0,0.0,0.0,0.0,100000.0,0.00272306799889,-0.00126614049077,-0.00399184506387,1.0,0.0,0.0,0.0,1.0,0.0,0.0,0.0,1.0,-0.19124388136,-0.299974502251,9.67756437063,0.1,0.0,0.0,0.0,0.1,0.0,0.0,0.0,0.1
1405689221689888825,218,1405689221689888825,ardrone_base_link,0.070877711919,0.00979222212284,-0.00439595178101,0.997427259477,1.0,0.0,0.0,0.0,1.0,0.0,0.0,0.0,100000.0,-0.00301461294293,0.000842802226543,-0.00453777424991,1.0,0.0,0.0,0.0,1.0,0.0,0.0,0.0,1.0,-0.192323016748,-0.299748354405,9.67759824991,0.1,0.0,0.0,0.0,0.1,0.0,0.0,0.0,0.1
1405689221689979508,219,1405689221689979508,ardrone_base_link,0.0708689445576,0.00980158362155,-0.00438777976705,0.997427826484,1.0,0.0,0.0,0.0,1.0,0.0,0.0,0.0,100000.0,-0.000969029963017,9.82843412203e-05,-0.00567725580186,1.0,0.0,0.0,0.0,1.0,0.0,0.0,0.0,1.0,-0.193147144839,-0.300073036924,9.67756437063,0.1,0.0,0.0,0.0,0.1,0.0,0.0,0.0,0.1
1405689221690039648,220,1405689221690039648,ardrone_base_link,0.0708603306613,0.009801003507,-0.00439639864047,0.997428406227,1.0,0.0,0.0,0.0,1.0,0.0,0.0,0.0,100000.0,-0.00263402238488,-0.00251621380448,-0.0052289692685,1.0,0.0,0.0,0.0,1.0,0.0,0.0,0.0,1.0,-0.19331407696,-0.300870678574,9.67757663727,0.1,0.0,0.0,0.0,0.1,0.0,0.0,0.0,0.1
1405689221694087375,221,1405689221694087375,ardrone_base_link,0.0708516229248,0.00980104188799,-0.00439631307574,0.997429024812,1.0,0.0,0.0,0.0,1.0,0.0,0.0,0.0,100000.0,-0.00146494072396,-0.00551082566381,-0.00585057213902,1.0,0.0,0.0,0.0,1.0,0.0,0.0,0.0,1.0,-0.192000670731,-0.302408443764,9.70098780394,0.1,0.0,0.0,0.0,0.1,0.0,0.0,0.0,0.1
1405689221699452234,222,1405689221699452234,ardrone_base_link,0.0708428975828,0.00979237555358,-0.00439560998971,0.997429732791,1.0,0.0,0.0,0.0,1.0,0.0,0.0,0.0,100000.0,-0.000646144151688,-0.00792319700122,-0.00492561701685,1.0,0.0,0.0,0.0,1.0,0.0,0.0,0.0,1.0,-0.190305027366,-0.303672162816,9.72386566401,0.1,0.0,0.0,0.0,0.1,0.0,0.0,0.0,0.1
1405689221706864440,223,1405689221706864440,ardrone_base_link,0.0708341639306,0.00978371028111,-0.00439490704705,0.997430441196,1.0,0.0,0.0,0.0,1.0,0.0,0.0,0.0,100000.0,-0.00143756717443,-0.00589049234986,-0.00356836151332,1.0,0.0,0.0,0.0,1.0,0.0,0.0,0.0,1.0,-0.189803154022,-0.303773143515,9.71808983088,0.1,0.0,0.0,0.0,0.1,0.0,0.0,0.0,0.1
1405689221709399554,224,1405689221709399554,ardrone_base_link,0.0708254385639,0.00977504392216,-0.00439420426343,0.997431148871,1.0,0.0,0.0,0.0,1.0,0.0,0.0,0.0,100000.0,-0.00172805786133,-0.00566218420863,-0.0031160749495,1.0,0.0,0.0,0.0,1.0,0.0,0.0,0.0,1.0,-0.189829202369,-0.303647045419,9.7150827527,0.1,0.0,0.0,0.0,0.1,0.0,0.0,0.0,0.1
1405689221714655169,225,1405689221714655169,ardrone_base_link,0.0708255238635,0.00977442586054,-0.00440290838928,0.997431110486,1.0,0.0,0.0,0.0,1.0,0.0,0.0,0.0,100000.0,-0.00394080206752,-0.00504782423377,-0.00150083936751,1.0,0.0,0.0,0.0,1.0,0.0,0.0,0.0,1.0,-0.190393412858,-0.303486283123,9.71674517393,0.1,0.0,0.0,0.0,0.1,0.0,0.0,0.0,0.1
1405689221748562045,226,1405689221748562045,ardrone_base_link,0.0708254978687,0.00976572116968,-0.00440229093845,0.997431200322,1.0,0.0,0.0,0.0,1.0,0.0,0.0,0.0,100000.0,-0.000602725893259,-0.00556100904942,-0.00207587704062,1.0,0.0,0.0,0.0,1.0,0.0,0.0,0.0,1.0,-0.191425708681,-0.303183706105,9.71631000042,0.1,0.0,0.0,0.0,0.1,0.0,0.0,0.0,0.1
1405689221749780481,227,1405689221749780481,ardrone_base_link,0.0708255830895,0.00976510308912,-0.00441099532415,0.997431161866,1.0,0.0,0.0,0.0,1.0,0.0,0.0,0.0,100000.0,-0.00251490622759,-0.0061155743897,-0.00236547086388,1.0,0.0,0.0,0.0,1.0,0.0,0.0,0.0,1.0,-0.192914005741,-0.325339404494,9.71536021233,0.1,0.0,0.0,0.0,0.1,0.0,0.0,0.0,0.1
1405689221751858202,228,1405689221751858202,ardrone_base_link,0.0708168492551,0.00975643793841,-0.00441029277203,0.997431869903,1.0,0.0,0.0,0.0,1.0,0.0,0.0,0.0,100000.0,0.000125132501125,-0.00585433095694,-0.00412945263088,1.0,0.0,0.0,0.0,1.0,0.0,0.0,0.0,1.0,-0.170942836255,-0.324136909097,9.71469197273,0.1,0.0,0.0,0.0,0.1,0.0,0.0,0.0,0.1
1405689221753096638,229,1405689221753096638,ardrone_base_link,0.0708080303357,0.00974838966593,-0.00440088589958,0.997432616241,1.0,0.0,0.0,0.0,1.0,0.0,0.0,0.0,100000.0,0.00117916241288,-0.00305708125234,-0.00478355260566,1.0,0.0,0.0,0.0,1.0,0.0,0.0,0.0,1.0,-0.148361292109,-0.295989214629,9.71560612917,0.1,0.0,0.0,0.0,0.1,0.0,0.0,0.0,0.1
1405689221754454728,230,1405689221754454728,ardrone_base_link,0.0708080303357,0.00974838966593,-0.00440088589958,0.997432616241,1.0,0.0,0.0,0.0,1.0,0.0,0.0,0.0,100000.0,-0.000545311719179,-0.00148393958807,-0.00331059773453,1.0,0.0,0.0,0.0,1.0,0.0,0.0,0.0,1.0,-0.153695690632,-0.298658211902,9.71558218002,0.1,0.0,0.0,0.0,0.1,0.0,0.0,0.0,0.1
1405689221755704145,231,1405689221755704145,ardrone_base_link,0.0707992717227,0.00975775059126,-0.0043927139553,0.997433182469,1.0,0.0,0.0,0.0,1.0,0.0,0.0,0.0,100000.0,0.00148247927427,-0.00127639248967,-0.00364686641842,1.0,0.0,0.0,0.0,1.0,0.0,0.0,0.0,1.0,-0.156052034721,-0.303438275307,9.71540285349,0.1,0.0,0.0,0.0,0.1,0.0,0.0,0.0,0.1
1405689221757142115,232,1405689221757142115,ardrone_base_link,0.0707991865661,0.00975836844221,-0.00438400955197,0.997433220766,1.0,0.0,0.0,0.0,1.0,0.0,0.0,0.0,100000.0,7.90245831013e-05,0.000873047858477,-0.0022875405848,1.0,0.0,0.0,0.0,1.0,0.0,0.0,0.0,1.0,-0.153402094543,-0.301936287805,9.71549806595,0.1,0.0,0.0,0.0,0.1,0.0,0.0,0.0,0.1
1405689221758465920,233,1405689221758465920,ardrone_base_link,0.0707905639446,0.00975778894009,-0.00439262876817,0.997433800522,1.0,0.0,0.0,0.0,1.0,0.0,0.0,0.0,100000.0,-0.00285272672772,-0.00410176813602,-0.0020544808358,1.0,0.0,0.0,0.0,1.0,0.0,0.0,0.0,1.0,-0.152541559003,-0.303103772178,9.7154741168,0.1,0.0,0.0,0.0,0.1,0.0,0.0,0.0,0.1
1405689221759973834,234,1405689221759973834,ardrone_base_link,0.0707905639446,0.00975778894009,-0.00439262876817,0.997433800522,1.0,0.0,0.0,0.0,1.0,0.0,0.0,0.0,100000.0,-0.00102423503995,-0.00143597275019,-0.00293606240302,1.0,0.0,0.0,0.0,1.0,0.0,0.0,0.0,1.0,-0.173606740683,-0.303697316721,9.71599574089,0.1,0.0,0.0,0.0,0.1,0.0,0.0,0.0,0.1
1405689221764456575,235,1405689221764456575,ardrone_base_link,0.0707905639446,0.00975778894009,-0.00439262876817,0.997433800522,1.0,0.0,0.0,0.0,1.0,0.0,0.0,0.0,100000.0,-0.00238934508525,-0.00334690883756,-0.00175120541826,1.0,0.0,0.0,0.0,1.0,0.0,0.0,0.0,1.0,-0.172996749356,-0.303609205037,9.69256763458,0.1,0.0,0.0,0.0,0.1,0.0,0.0,0.0,0.1
1405689221798608385,236,1405689221798608385,ardrone_base_link,0.0707905380118,0.00974908422596,-0.00439201161979,0.9974338902,1.0,0.0,0.0,0.0,1.0,0.0,0.0,0.0,100000.0,-0.00113834440708,-0.00481182709336,-0.00115801626816,1.0,0.0,0.0,0.0,1.0,0.0,0.0,0.0,1.0,-0.14553874284,-0.302263909206,9.66905424595,0.1,0.0,0.0,0.0,0.1,0.0,0.0,0.0,0.1
1405689221799317473,237,1405689221799317473,ardrone_base_link,0.0707905120767,0.00974038054873,-0.00439139454464,0.99743397979,1.0,0.0,0.0,0.0,1.0,0.0,0.0,0.0,100000.0,-0.000799924135208,-0.00315832369961,-0.0017912844196,1.0,0.0,0.0,0.0,1.0,0.0,0.0,0.0,1.0,-0.148170073144,-0.301867050678,9.67489199638,0.1,0.0,0.0,0.0,0.1,0.0,0.0,0.0,0.1
1405689221799398472,238,1405689221799398472,ardrone_base_link,0.0707904861331,0.00973167583312,-0.00439077739559,0.997434069316,1.0,0.0,0.0,0.0,1.0,0.0,0.0,0.0,100000.0,-0.0016970038414,-0.00512627139688,-0.000691338500474,1.0,0.0,0.0,0.0,1.0,0.0,0.0,0.0,1.0,-0.152537278458,-0.301972996444,9.70140895844,0.1,0.0,0.0,0.0,0.1,0.0,0.0,0.0,0.1
1405689221800283921,239,1405689221800283921,ardrone_base_link,0.0707817866482,0.0097317141285,-0.0043906925171,0.997434686703,1.0,0.0,0.0,0.0,1.0,0.0,0.0,0.0,100000.0,-0.00160340592265,-0.00385156646371,-0.00304130278528,1.0,0.0,0.0,0.0,1.0,0.0,0.0,0.0,1.0,-0.150944568962,-0.301811084151,9.722590518,0.1,0.0,0.0,0.0,0.1,0.0,0.0,0.0,0.1
1405689221803082443,240,1405689221803082443,ardrone_base_link,0.0707817866482,0.0097317141285,-0.0043906925171,0.997434686703,1.0,0.0,0.0,0.0,1.0,0.0,0.0,0.0,100000.0,-0.00132682174444,-0.000828441232443,-0.00271726353094,1.0,0.0,0.0,0.0,1.0,0.0,0.0,0.0,1.0,-0.15303101968,-0.301251619682,9.71725745201,0.1,0.0,0.0,0.0,0.1,0.0,0.0,0.0,0.1
1405689221803212606,241,1405689221803212606,ardrone_base_link,0.0707817866482,0.0097317141285,-0.0043906925171,0.997434686703,1.0,0.0,0.0,0.0,1.0,0.0,0.0,0.0,100000.0,-0.0014949478209,-0.00258845835924,-0.00278575299308,1.0,0.0,0.0,0.0,1.0,0.0,0.0,0.0,1.0,-0.154069129378,-0.301009262353,9.71414231062,0.1,0.0,0.0,0.0,0.1,0.0,0.0,0.0,0.1
1405689221803971518,242,1405689221803971518,ardrone_base_link,0.0707731377523,0.00972243012809,-0.00439869472269,0.997435355705,1.0,0.0,0.0,0.0,1.0,0.0,0.0,0.0,100000.0,-0.00137749314308,-0.00384094961919,-0.00351511547342,1.0,0.0,0.0,0.0,1.0,0.0,0.0,0.0,1.0,-0.155015485734,-0.301122418419,9.71599398851,0.1,0.0,0.0,0.0,0.1,0.0,0.0,0.0,0.1
1405689221804343325,243,1405689221804343325,ardrone_base_link,0.0707644122267,0.00971376479714,-0.00439799307727,0.997436062308,1.0,0.0,0.0,0.0,1.0,0.0,0.0,0.0,100000.0,-0.0013640410034,-0.00420990586281,-0.00306527549401,1.0,0.0,0.0,0.0,1.0,0.0,0.0,0.0,1.0,-0.154965561256,-0.301329929009,9.71541278362,0.1,0.0,0.0,0.0,0.1,0.0,0.0,0.0,0.1
1405689221808895828,244,1405689221808895828,ardrone_base_link,0.0707643861886,0.00970506006338,-0.00439737615583,0.99743615161,1.0,0.0,0.0,0.0,1.0,0.0,0.0,0.0,100000.0,-0.00149574503303,-0.00565800443292,-0.00396915711462,1.0,0.0,0.0,0.0,1.0,0.0,0.0,0.0,1.0,-0.15455121547,-0.301643640921,9.71554187536,0.1,0.0,0.0,0.0,0.1,0.0,0.0,0.0,0.1
1405689221814073618,245,1405689221814073618,ardrone_base_link,0.0707556783845,0.00970509845292,-0.0043972914287,0.997436769359,1.0,0.0,0.0,0.0,1.0,0.0,0.0,0.0,100000.0,-0.00145206600428,-0.000784646719694,-0.00323537457734,1.0,0.0,0.0,0.0,1.0,0.0,0.0,0.0,1.0,-0.154060769081,-0.301964800432,9.71540051699,0.1,0.0,0.0,0.0,0.1,0.0,0.0,0.0,0.1
1405689221818775167,246,1405689221818775167,ardrone_base_link,0.0707557044234,0.00971380319206,-0.00439790827415,0.997436680056,1.0,0.0,0.0,0.0,1.0,0.0,0.0,0.0,100000.0,-0.00140058249235,0.000922743231058,-0.00307206343859,1.0,0.0,0.0,0.0,1.0,0.0,0.0,0.0,1.0,-0.153545314819,-0.302246367186,9.71550332308,0.1,0.0,0.0,0.0,0.1,0.0,0.0,0.0,0.1
1405689221830587766,247,1405689221830587766,ardrone_base_link,0.0707470226458,0.00972254529239,-0.00439844016628,0.997437208361,1.0,0.0,0.0,0.0,1.0,0.0,0.0,0.0,100000.0,-0.00141635537148,0.000135660171509,-0.00206719152629,1.0,0.0,0.0,0.0,1.0,0.0,0.0,0.0,1.0,-0.153209752962,-0.302441866696,9.71548871994,0.1,0.0,0.0,0.0,0.1,0.0,0.0,0.0,0.1
1405689221832545580,248,1405689221832545580,ardrone_base_link,0.0707469966147,0.00971384158624,-0.00439782347069,0.997437297729,1.0,0.0,0.0,0.0,1.0,0.0,0.0,0.0,100000.0,-0.00142516940832,-0.00250262767076,-0.00247035687789,1.0,0.0,0.0,0.0,1.0,0.0,0.0,0.0,1.0,-0.152782638557,-0.302541514859,9.71545542479,0.1,0.0,0.0,0.0,0.1,0.0,0.0,0.0,0.1
1405689221834593912,249,1405689221834593912,ardrone_base_link,0.0707469118437,0.00971445896259,-0.00438911929085,0.997437336069,1.0,0.0,0.0,0.0,1.0,0.0,0.0,0.0,100000.0,0.00111053138971,-0.00565166398883,-0.00318430969492,1.0,0.0,0.0,0.0,1.0,0.0,0.0,0.0,1.0,-0.173818413168,-0.303496249765,9.73941274881,0.1,0.0,0.0,0.0,0.1,0.0,0.0,0.0,0.1
1405689221838998687,250,1405689221838998687,ardrone_base_link,0.0707381863659,0.00970579249338,-0.00438841786821,0.997438042372,1.0,0.0,0.0,0.0,1.0,0.0,0.0,0.0,100000.0,0.000237703337916,-0.00535421818495,-0.00358713744208,1.0,0.0,0.0,0.0,1.0,0.0,0.0,0.0,1.0,-0.171813329309,-0.304093700647,9.76226665974,0.1,0.0,0.0,0.0,0.1,0.0,0.0,0.0,0.1
1405689221844566325,251,1405689221844566325,ardrone_base_link,0.0707293679502,0.00969774432774,-0.00437901213763,0.997438787353,1.0,0.0,0.0,0.0,1.0,0.0,0.0,0.0,100000.0,0.0013924241066,-0.00413940101862,-0.0041741002351,1.0,0.0,0.0,0.0,1.0,0.0,0.0,0.0,1.0,-0.16754976064,-0.303248069435,9.73297218084,0.1,0.0,0.0,0.0,0.1,0.0,0.0,0.0,0.1
1405689221848759145,252,1405689221848759145,ardrone_base_link,0.0707293938418,0.00970644804659,-0.00437962868355,0.997438698149,1.0,0.0,0.0,0.0,1.0,0.0,0.0,0.0,100000.0,-8.65682959557e-05,-0.0029095299542,-0.00297330296598,1.0,0.0,0.0,0.0,1.0,0.0,0.0,0.0,1.0,-0.192713176087,-0.303658235073,9.73105800152,0.1,0.0,0.0,0.0,0.1,0.0,0.0,0.0,0.1
1405689221853905259,253,1405689221853905259,ardrone_base_link,0.0707206943166,0.00970648624473,-0.00437954402508,0.997439315003,1.0,0.0,0.0,0.0,1.0,0.0,0.0,0.0,100000.0,-0.00277992361225,-0.00119759514928,-0.00163179263473,1.0,0.0,0.0,0.0,1.0,0.0,0.0,0.0,1.0,-0.19145860225,-0.304770519584,9.76135776043,0.1,0.0,0.0,0.0,0.1,0.0,0.0,0.0,0.1
1405689221860504325,254,1405689221860504325,ardrone_base_link,0.070729419731,0.00971515280233,-0.00438024530264,0.997438608859,1.0,0.0,0.0,0.0,1.0,0.0,0.0,0.0,100000.0,-0.00113866478205,-0.00267965742387,-0.00119939958677,1.0,0.0,0.0,0.0,1.0,0.0,0.0,0.0,1.0,-0.187708060071,-0.30492272079,9.75803642273,0.1,0.0,0.0,0.0,0.1,0.0,0.0,0.0,0.1
1405689221863975082,255,1405689221863975082,ardrone_base_link,0.0707208897584,0.00971395669114,-0.00439756921998,0.997439149112,1.0,0.0,0.0,0.0,1.0,0.0,0.0,0.0,100000.0,-0.00488686934114,-0.00140571966767,-0.00234720623121,1.0,0.0,0.0,0.0,1.0,0.0,0.0,0.0,1.0,-0.19157471545,-0.30428609699,9.73010587692,0.1,0.0,0.0,0.0,0.1,0.0,0.0,0.0,0.1
1405689221868764499,256,1405689221868764499,ardrone_base_link,0.0707209418231,0.00973136517262,-0.00439880222871,0.997438970293,1.0,0.0,0.0,0.0,1.0,0.0,0.0,0.0,100000.0,-0.00271832197905,-0.000126995146275,-0.00203174632043,1.0,0.0,0.0,0.0,1.0,0.0,0.0,0.0,1.0,-0.191860717908,-0.303442181647,9.70912759304,0.1,0.0,0.0,0.0,0.1,0.0,0.0,0.0,0.1
1405689221874081172,257,1405689221874081172,ardrone_base_link,0.0707122339944,0.0097314035746,-0.00439871727193,0.997439587662,1.0,0.0,0.0,0.0,1.0,0.0,0.0,0.0,100000.0,-0.00110033527017,-0.00353077054024,-0.00490263151005,1.0,0.0,0.0,0.0,1.0,0.0,0.0,0.0,1.0,-0.191752800718,-0.302955130488,9.71452257633,0.1,0.0,0.0,0.0,0.1,0.0,0.0,0.0,0.1
1405689221892868349,258,1405689221892868349,ardrone_base_link,0.0707035001276,0.00972273720589,-0.00439801592586,0.997440294407,1.0,0.0,0.0,0.0,1.0,0.0,0.0,0.0,100000.0,-0.00137442350388,-0.00335289165378,-0.00457288650796,1.0,0.0,0.0,0.0,1.0,0.0,0.0,0.0,1.0,-0.168098090217,-0.30187115781,9.717248106,0.1,0.0,0.0,0.0,0.1,0.0,0.0,0.0,0.1
1405689221893437898,259,1405689221893437898,ardrone_base_link,0.0707034740925,0.00971403347284,-0.00439739961005,0.997440383773,1.0,0.0,0.0,0.0,1.0,0.0,0.0,0.0,100000.0,-5.49852848053e-06,-0.00527995824814,-0.00294839963317,1.0,0.0,0.0,0.0,1.0,0.0,0.0,0.0,1.0,-0.145511389337,-0.300716834515,9.71473344564,0.1,0.0,0.0,0.0,0.1,0.0,0.0,0.0,0.1
1405689221894105944,260,1405689221894105944,ardrone_base_link,0.0706946378407,0.00969728022945,-0.00438737811745,0.99744121724,1.0,0.0,0.0,0.0,1.0,0.0,0.0,0.0,100000.0,0.000599604099989,-0.00776039063931,-0.00382751319557,1.0,0.0,0.0,0.0,1.0,0.0,0.0,0.0,1.0,-0.150569222681,-0.300368695706,9.71549397707,0.1,0.0,0.0,0.0,0.1,0.0,0.0,0.0,0.1
1405689221894438428,261,1405689221894438428,ardrone_base_link,0.0706946378407,0.00969728022945,-0.00438737811745,0.99744121724,1.0,0.0,0.0,0.0,1.0,0.0,0.0,0.0,100000.0,-0.000457301764982,-0.00442050397396,-0.000946553424001,1.0,0.0,0.0,0.0,1.0,0.0,0.0,0.0,1.0,-0.153344193101,-0.300496819988,9.71546301842,0.1,0.0,0.0,0.0,0.1,0.0,0.0,0.0,0.1
1405689221898764858,262,1405689221898764858,ardrone_base_link,0.0706945858771,0.00967987067169,-0.00438614548681,0.997441395451,1.0,0.0,0.0,0.0,1.0,0.0,0.0,0.0,100000.0,-0.000885780900717,-0.00634712353349,-0.00110568571836,1.0,0.0,0.0,0.0,1.0,0.0,0.0,0.0,1.0,-0.152844090387,-0.323590240628,9.71447993517,0.1,0.0,0.0,0.0,0.1,0.0,0.0,0.0,0.1
1405689221905400245,263,1405689221905400245,ardrone_base_link,0.0706945858771,0.00967987067169,-0.00438614548681,0.997441395451,1.0,0.0,0.0,0.0,1.0,0.0,0.0,0.0,100000.0,0.00090981653193,-0.00317249447107,-0.00148088857532,1.0,0.0,0.0,0.0,1.0,0.0,0.0,0.0,1.0,-0.154170584679,-0.323973280936,9.71442444324,0.1,0.0,0.0,0.0,0.1,0.0,0.0,0.0,0.1
1405689221911220893,264,1405689221911220893,ardrone_base_link,0.0706946442835,0.00967055000984,-0.0043942334605,0.997441446123,1.0,0.0,0.0,0.0,1.0,0.0,0.0,0.0,100000.0,-0.00645808875561,-0.00352372974157,-0.00236366176978,1.0,0.0,0.0,0.0,1.0,0.0,0.0,0.0,1.0,-0.154391767457,-0.297307658941,9.71571886539,0.1,0.0,0.0,0.0,0.1,0.0,0.0,0.0,0.1
1405689221914062335,265,1405689221914062335,ardrone_base_link,0.0706859364332,0.00967058837194,-0.00439414903465,0.997442063263,1.0,0.0,0.0,0.0,1.0,0.0,0.0,0.0,100000.0,-0.00126082077622,-0.00323809310794,-0.00414221780375,1.0,0.0,0.0,0.0,1.0,0.0,0.0,0.0,1.0,-0.155294898525,-0.300621585548,9.71563007832,0.1,0.0,0.0,0.0,0.1,0.0,0.0,0.0,0.1
1405689221918553323,266,1405689221918553323,ardrone_base_link,0.0706772951209,0.009661305119,-0.00440215301215,0.997442730279,1.0,0.0,0.0,0.0,1.0,0.0,0.0,0.0,100000.0,-0.0025879368186,-0.0045375674963,-0.0040983739309,1.0,0.0,0.0,0.0,1.0,0.0,0.0,0.0,1.0,-0.155378720537,-0.305287543684,9.71539058685,0.1,0.0,0.0,0.0,0.1,0.0,0.0,0.0,0.1
1405689221924100207,267,1405689221924100207,ardrone_base_link,0.0706686715668,0.00966072685739,-0.0044107728993,0.997443308814,1.0,0.0,0.0,0.0,1.0,0.0,0.0,0.0,100000.0,-0.00405637547374,-0.00428982824087,-0.00342646148056,1.0,0.0,0.0,0.0,1.0,0.0,0.0,0.0,1.0,-0.154904483631,-0.302895312384,9.71549572945,0.1,0.0,0.0,0.0,0.1,0.0,0.0,0.0,0.1
1405689221938028418,268,1405689221938028418,ardrone_base_link,0.0706685611076,0.00965263979075,-0.00440145265342,0.997443436106,1.0,0.0,0.0,0.0,1.0,0.0,0.0,0.0,100000.0,0.00178581103683,-0.00383974984288,-0.00144252192695,1.0,0.0,0.0,0.0,1.0,0.0,0.0,0.0,1.0,-0.154150797427,-0.302639647946,9.7154694438,0.1,0.0,0.0,0.0,0.1,0.0,0.0,0.0,0.1
1405689221938129429,269,1405689221938129429,ardrone_base_link,0.0706773532011,0.00965198459628,-0.00441024115026,0.99744278067,1.0,0.0,0.0,0.0,1.0,0.0,0.0,0.0,100000.0,-0.00328565761447,-0.0038589797914,-0.00093667767942,1.0,0.0,0.0,0.0,1.0,0.0,0.0,0.0,1.0,-0.176335592568,-0.324351538718,9.71495015621,0.1,0.0,0.0,0.0,0.1,0.0,0.0,0.0,0.1
1405689221938721023,270,1405689221938721023,ardrone_base_link,0.0706686453391,0.00965202309813,-0.00441015688649,0.997443397658,1.0,0.0,0.0,0.0,1.0,0.0,0.0,0.0,100000.0,-0.000893861055374,-0.00394820421934,-0.0024595647119,1.0,0.0,0.0,0.0,1.0,0.0,0.0,0.0,1.0,-0.197688300908,-0.323830681294,9.7154671073,0.1,0.0,0.0,0.0,0.1,0.0,0.0,0.0,0.1
1405689221944054316,271,1405689221944054316,ardrone_base_link,0.0706685349474,0.00964393499287,-0.00440083656606,0.997443524879,1.0,0.0,0.0,0.0,1.0,0.0,0.0,0.0,100000.0,0.00170029699802,-0.00649853795767,-0.00211078301072,1.0,0.0,0.0,0.0,1.0,0.0,0.0,0.0,1.0,-0.19103525728,-0.295845355466,9.7166301012,0.1,0.0,0.0,0.0,0.1,0.0,0.0,0.0,0.1
1405689221948719418,272,1405689221948719418,ardrone_base_link,0.07065983538,0.00964397337599,-0.00440075245283,0.997444141203,1.0,0.0,0.0,0.0,1.0,0.0,0.0,0.0,100000.0,-0.000498257577419,-0.00317238643765,-0.00487322779372,1.0,0.0,0.0,0.0,1.0,0.0,0.0,0.0,1.0,-0.188042690977,-0.298684059456,9.71644084454,0.1,0.0,0.0,0.0,0.1,0.0,0.0,0.0,0.1
1405689221954856808,273,1405689221954856808,ardrone_base_link,0.0706511275062,0.00964401179501,-0.00440066825899,0.997444758038,1.0,0.0,0.0,0.0,1.0,0.0,0.0,0.0,100000.0,-0.00108238682151,-0.00510106980801,-0.00320389633998,1.0,0.0,0.0,0.0,1.0,0.0,0.0,0.0,1.0,-0.189880714938,-0.303810710087,9.716261518,0.1,0.0,0.0,0.0,0.1,0.0,0.0,0.0,0.1
1405689221958812358,274,1405689221958812358,ardrone_base_link,0.0706511275062,0.00964401179501,-0.00440066825899,0.997444758038,1.0,0.0,0.0,0.0,1.0,0.0,0.0,0.0,100000.0,-0.00141363975126,-0.0024821870029,-0.00201269984245,1.0,0.0,0.0,0.0,1.0,0.0,0.0,0.0,1.0,-0.189768416807,-0.302491097525,9.71635030508,0.1,0.0,0.0,0.0,0.1,0.0,0.0,0.0,0.1
1405689221964275555,275,1405689221964275555,ardrone_base_link,0.0706511275062,0.00964401179501,-0.00440066825899,0.997444758038,1.0,0.0,0.0,0.0,1.0,0.0,0.0,0.0,100000.0,-0.00327301770449,-0.00383925810456,-0.00368299894035,1.0,0.0,0.0,0.0,1.0,0.0,0.0,0.0,1.0,-0.190294330567,-0.303734080121,9.71632869244,0.1,0.0,0.0,0.0,0.1,0.0,0.0,0.0,0.1
1405689221968858108,276,1405689221968858108,ardrone_base_link,0.070642393459,0.00963534539855,-0.00439996820504,0.997445463494,1.0,0.0,0.0,0.0,1.0,0.0,0.0,0.0,100000.0,-0.000739838927984,-0.00723854452372,-0.00254191830754,1.0,0.0,0.0,0.0,1.0,0.0,0.0,0.0,1.0,-0.190427839756,-0.30390579477,9.71633803844,0.1,0.0,0.0,0.0,0.1,0.0,0.0,0.0,0.1
1405689221987893308,277,1405689221987893308,ardrone_base_link,0.070633609786,0.00963600018008,-0.00439117965084,0.997446117948,1.0,0.0,0.0,0.0,1.0,0.0,0.0,0.0,100000.0,0.00187036767602,-0.00555928051472,-0.00424758251756,1.0,0.0,0.0,0.0,1.0,0.0,0.0,0.0,1.0,-0.190159269795,-0.28168210052,9.71737427711,0.1,0.0,0.0,0.0,0.1,0.0,0.0,0.0,0.1
1405689221991734250,278,1405689221991734250,ardrone_base_link,0.070633609786,0.00963600018008,-0.00439117965084,0.997446117948,1.0,0.0,0.0,0.0,1.0,0.0,0.0,0.0,100000.0,-9.94019210339e-05,-0.00405709818006,-0.00355307292193,1.0,0.0,0.0,0.0,1.0,0.0,0.0,0.0,1.0,-0.190187891945,-0.281664741039,9.71735733747,0.1,0.0,0.0,0.0,0.1,0.0,0.0,0.0,0.1
1405689221991786978,279,1405689221991786978,ardrone_base_link,0.0706248178029,0.00963665482641,-0.00438239126443,0.997446772836,1.0,0.0,0.0,0.0,1.0,0.0,0.0,0.0,100000.0,0.00133737176657,-0.00370117276907,-0.0028701769188,1.0,0.0,0.0,0.0,1.0,0.0,0.0,0.0,1.0,-0.19038932398,-0.286257920787,9.71711784601,0.1,0.0,0.0,0.0,0.1,0.0,0.0,0.0,0.1
1405689221991823324,280,1405689221991823324,ardrone_base_link,0.0706247337031,0.00963727115494,-0.00437368674249,0.997446811042,1.0,0.0,0.0,0.0,1.0,0.0,0.0,0.0,100000.0,-9.28267836571e-05,-0.00227412208915,-0.00198497995734,1.0,0.0,0.0,0.0,1.0,0.0,0.0,0.0,1.0,-0.189152565971,-0.262054406106,9.74167798758,0.1,0.0,0.0,0.0,0.1,0.0,0.0,0.0,0.1
1405689221993819756,281,1405689221993819756,ardrone_base_link,0.0706246496003,0.00963788746436,-0.00436498247964,0.997446849171,1.0,0.0,0.0,0.0,1.0,0.0,0.0,0.0,100000.0,-0.0028846822679,-0.00463129580021,-0.00253069028258,1.0,0.0,0.0,0.0,1.0,0.0,0.0,0.0,1.0,-0.189231660217,-0.263079838455,9.74109678268,0.1,0.0,0.0,0.0,0.1,0.0,0.0,0.0,0.1
1405689221998477417,282,1405689221998477417,ardrone_base_link,0.0706246237323,0.00962918367488,-0.00436436684174,0.99744693776,1.0,0.0,0.0,0.0,1.0,0.0,0.0,0.0,100000.0,-0.000983282923698,-0.00724573805928,-0.00177542725578,1.0,0.0,0.0,0.0,1.0,0.0,0.0,0.0,1.0,-0.190194207802,-0.267378217354,9.71221352816,0.1,0.0,0.0,0.0,0.1,0.0,0.0,0.0,0.1
1405689222003849529,283,1405689222003849529,ardrone_base_link,0.0706246237323,0.00962918367488,-0.00436436684174,0.99744693776,1.0,0.0,0.0,0.0,1.0,0.0,0.0,0.0,100000.0,-0.00228537642397,-0.00532133132219,-0.00133276404813,1.0,0.0,0.0,0.0,1.0,0.0,0.0,0.0,1.0,-0.190211658552,-0.287962946668,9.71402957439,0.1,0.0,0.0,0.0,0.1,0.0,0.0,0.0,0.1
1405689222008425067,284,1405689222008425067,ardrone_base_link,0.0706159241353,0.00962922173992,-0.00436428285716,0.9974475537,1.0,0.0,0.0,0.0,1.0,0.0,0.0,0.0,100000.0,-0.00113094225526,-0.00410240516067,-0.00315270805731,1.0,0.0,0.0,0.0,1.0,0.0,0.0,0.0,1.0,-0.190278066322,-0.310620208085,9.71764472723,0.1,0.0,0.0,0.0,0.1,0.0,0.0,0.0,0.1
1405689222013864641,285,1405689222013864641,ardrone_base_link,0.0706158401002,0.00962983799083,-0.00435557832842,0.997447591748,1.0,0.0,0.0,0.0,1.0,0.0,0.0,0.0,100000.0,0.00171343609691,-0.00361002981663,-0.00298513448797,1.0,0.0,0.0,0.0,1.0,0.0,0.0,0.0,1.0,-0.190174311027,-0.304220072553,9.715833354,0.1,0.0,0.0,0.0,0.1,0.0,0.0,0.0,0.1
1405689222018642534,286,1405689222018642534,ardrone_base_link,0.0705984583824,0.00963861780893,-0.00435602567824,0.997448735405,1.0,0.0,0.0,0.0,1.0,0.0,0.0,0.0,100000.0,-1.60783529282e-05,0.000220980509766,-0.00543716643006,1.0,0.0,0.0,0.0,1.0,0.0,0.0,0.0,1.0,-0.190266073495,-0.301217101514,9.71647706032,0.1,0.0,0.0,0.0,0.1,0.0,0.0,0.0,0.1
1405689222024659448,287,1405689222024659448,ardrone_base_link,0.0705896663537,0.00963927184161,-0.00434723724614,0.997449389679,1.0,0.0,0.0,0.0,1.0,0.0,0.0,0.0,100000.0,0.00121732801199,-0.00306417793036,-0.00492314342409,1.0,0.0,0.0,0.0,1.0,0.0,0.0,0.0,1.0,-0.190452446043,-0.302396578714,9.71613943577,0.1,0.0,0.0,0.0,0.1,0.0,0.0,0.0,0.1
1405689222034171634,288,1405689222034171634,ardrone_base_link,0.0705897504685,0.00963865583747,-0.00435594153116,0.997449351705,1.0,0.0,0.0,0.0,1.0,0.0,0.0,0.0,100000.0,-0.00252980389632,-0.00441893562675,-0.00420422106981,1.0,0.0,0.0,0.0,1.0,0.0,0.0,0.0,1.0,-0.190307856724,-0.302000468597,9.71647472382,0.1,0.0,0.0,0.0,0.1,0.0,0.0,0.0,0.1
1405689222035635700,289,1405689222035635700,ardrone_base_link,0.0705810683428,0.00964739871875,-0.00435647271566,0.99744987926,1.0,0.0,0.0,0.0,1.0,0.0,0.0,0.0,100000.0,-0.0019293987425,-0.00143471360207,-0.00387108139694,1.0,0.0,0.0,0.0,1.0,0.0,0.0,0.0,1.0,-0.190432257205,-0.325050554425,9.71524689198,0.1,0.0,0.0,0.0,0.1,0.0,0.0,0.0,0.1
1405689222038709551,290,1405689222038709551,ardrone_base_link,0.0705724270383,0.00963811598478,-0.00436447787109,0.997450545438,1.0,0.0,0.0,0.0,1.0,0.0,0.0,0.0,100000.0,-0.00220961123705,-0.0063135959208,-0.00283516105264,1.0,0.0,0.0,0.0,1.0,0.0,0.0,0.0,1.0,-0.190437952429,-0.347271638364,9.71422759295,0.1,0.0,0.0,0.0,0.1,0.0,0.0,0.0,0.1
1405689222045461251,291,1405689222045461251,ardrone_base_link,0.0705725370893,0.00964620498946,-0.00437379742063,0.997450418635,1.0,0.0,0.0,0.0,1.0,0.0,0.0,0.0,100000.0,-0.0008240416646,-0.00220456346869,-0.00349199213088,1.0,0.0,0.0,0.0,1.0,0.0,0.0,0.0,1.0,-0.189960539341,-0.342082778364,9.71455353498,0.1,0.0,0.0,0.0,0.1,0.0,0.0,0.0,0.1
1405689222048639215,292,1405689222048639215,ardrone_base_link,0.0705724270383,0.00963811598478,-0.00436447787109,0.997450545438,1.0,0.0,0.0,0.0,1.0,0.0,0.0,0.0,100000.0,0.00156651809812,-0.00467010959983,-0.00152396783233,1.0,0.0,0.0,0.0,1.0,0.0,0.0,0.0,1.0,-0.189320684597,-0.316556858271,9.71568323374,0.1,0.0,0.0,0.0,0.1,0.0,0.0,0.0,0.1
1405689222054019900,293,1405689222054019900,ardrone_base_link,0.0705724011657,0.00962941216308,-0.00436386268889,0.997450634025,1.0,0.0,0.0,0.0,1.0,0.0,0.0,0.0,100000.0,8.16285610199e-05,-0.00698533654213,-0.00128121732268,1.0,0.0,0.0,0.0,1.0,0.0,0.0,0.0,1.0,-0.189968844876,-0.295172643661,9.69324054718,0.1,0.0,0.0,0.0,0.1,0.0,0.0,0.0,0.1
1405689222058808357,294,1405689222058808357,ardrone_base_link,0.0705723171291,0.00963002803417,-0.00435515813326,0.99745067207,1.0,0.0,0.0,0.0,1.0,0.0,0.0,0.0,100000.0,0.00120830908418,-0.00499176979065,-0.00113858561963,1.0,0.0,0.0,0.0,1.0,0.0,0.0,0.0,1.0,-0.191439545155,-0.299493858218,9.67012377977,0.1,0.0,0.0,0.0,0.1,0.0,0.0,0.0,0.1
1405689222066055073,295,1405689222066055073,ardrone_base_link,0.070572291324,0.00962132317387,-0.00435454287661,0.997450760586,1.0,0.0,0.0,0.0,1.0,0.0,0.0,0.0,100000.0,-8.77045094967e-05,-0.00676705688238,-0.00096395984292,1.0,0.0,0.0,0.0,1.0,0.0,0.0,0.0,1.0,-0.191107542813,-0.303298541531,9.69916474819,0.1,0.0,0.0,0.0,0.1,0.0,0.0,0.0,0.1
1405689222069435793,296,1405689222069435793,ardrone_base_link,0.0705636091982,0.00963006605514,-0.00435507406117,0.997451288141,1.0,0.0,0.0,0.0,1.0,0.0,0.0,0.0,100000.0,-0.0027464593295,-0.00299863889813,-0.0033044766169,1.0,0.0,0.0,0.0,1.0,0.0,0.0,0.0,1.0,-0.190864437073,-0.302527368069,9.72513613701,0.1,0.0,0.0,0.0,0.1,0.0,0.0,0.0,0.1
1405689222073989927,297,1405689222073989927,ardrone_base_link,0.0705636349956,0.00963876988243,-0.00435568916816,0.99745119956,1.0,0.0,0.0,0.0,1.0,0.0,0.0,0.0,100000.0,-0.00105266645551,-0.000772289931774,-0.00257320376113,1.0,0.0,0.0,0.0,1.0,0.0,0.0,0.0,1.0,-0.191830763221,-0.303263439238,9.71767860651,0.1,0.0,0.0,0.0,0.1,0.0,0.0,0.0,0.1
1405689222079169524,298,1405689222079169524,ardrone_base_link,0.0705550194747,0.00963819215238,-0.00436430966558,0.99745177692,1.0,0.0,0.0,0.0,1.0,0.0,0.0,0.0,100000.0,-0.00487476959825,-0.00154941529036,-0.0041365926154,1.0,0.0,0.0,0.0,1.0,0.0,0.0,0.0,1.0,-0.192305985838,-0.303313856572,9.71510378122,0.1,0.0,0.0,0.0,0.1,0.0,0.0,0.0,0.1
1405689222084042923,299,1405689222084042923,ardrone_base_link,0.0705464215885,0.00964631950193,-0.00437354485997,0.997452266039,1.0,0.0,0.0,0.0,1.0,0.0,0.0,0.0,100000.0,-0.00276223197579,-0.00178084895015,-0.00443682773039,1.0,0.0,0.0,0.0,1.0,0.0,0.0,0.0,1.0,-0.192092579231,-0.303402515873,9.71666105986,0.1,0.0,0.0,0.0,0.1,0.0,0.0,0.0,0.1
1405689222088831894,300,1405689222088831894,ardrone_base_link,0.0705465057674,0.00964570385682,-0.00438224942951,0.997452227834,1.0,0.0,0.0,0.0,1.0,0.0,0.0,0.0,100000.0,-0.0036515891552,-0.00302054360509,-0.0031577469781,1.0,0.0,0.0,0.0,1.0,0.0,0.0,0.0,1.0,-0.190473273769,-0.30347211808,9.73982105255,0.1,0.0,0.0,0.0,0.1,0.0,0.0,0.0,0.1
1405689222108850704,301,1405689222108850704,ardrone_base_link,0.0705378902954,0.00964512652625,-0.00439086961601,0.997452804814,1.0,0.0,0.0,0.0,1.0,0.0,0.0,0.0,100000.0,-0.00557814538479,-0.00513791292906,-0.00383558426984,1.0,0.0,0.0,0.0,1.0,0.0,0.0,0.0,1.0,-0.188483577967,-0.303366884217,9.76266328096,0.1,0.0,0.0,0.0,0.1,0.0,0.0,0.0,0.1
1405689222109493984,302,1405689222109493984,ardrone_base_link,0.0705379744639,0.00964451095559,-0.00439957419025,0.997452766458,1.0,0.0,0.0,0.0,1.0,0.0,0.0,0.0,100000.0,-0.00446295412257,-0.00350192189217,-0.00239756610245,1.0,0.0,0.0,0.0,1.0,0.0,0.0,0.0,1.0,-0.187581122294,-0.302406216785,9.75673440695,0.1,0.0,0.0,0.0,0.1,0.0,0.0,0.0,0.1
1405689222110119644,303,1405689222110119644,ardrone_base_link,0.0705294085012,0.00963461352538,-0.00441628376038,0.997453393997,1.0,0.0,0.0,0.0,1.0,0.0,0.0,0.0,100000.0,-0.00863519310951,-0.00483743846416,-0.00337542314082,1.0,0.0,0.0,0.0,1.0,0.0,0.0,0.0,1.0,-0.187004973739,-0.301563597471,9.75390665531,0.1,0.0,0.0,0.0,0.1,0.0,0.0,0.0,0.1
1405689222110699503,304,1405689222110699503,ardrone_base_link,0.0705207846236,0.00963403665933,-0.00442490423302,0.997453971117,1.0,0.0,0.0,0.0,1.0,0.0,0.0,0.0,100000.0,-0.00636110827327,-0.00358603894711,-0.00519043393433,1.0,0.0,0.0,0.0,1.0,0.0,0.0,0.0,1.0,-0.186900232732,-0.301064827293,9.7554995656,0.1,0.0,0.0,0.0,0.1,0.0,0.0,0.0,0.1
1405689222115507147,305,1405689222115507147,ardrone_base_link,0.0705121955181,0.0096421648196,-0.00443413925375,0.997454458785,1.0,0.0,0.0,0.0,1.0,0.0,0.0,0.0,100000.0,-0.00454815477133,-0.00345019623637,-0.00415857695043,1.0,0.0,0.0,0.0,1.0,0.0,0.0,0.0,1.0,-0.187423043326,-0.3006727878,9.75504511595,0.1,0.0,0.0,0.0,0.1,0.0,0.0,0.0,0.1
1405689222118802288,306,1405689222118802288,ardrone_base_link,0.0705035716972,0.00964158825965,-0.00444275966975,0.997455035598,1.0,0.0,0.0,0.0,1.0,0.0,0.0,0.0,100000.0,-0.00479381158948,-0.00172060728073,-0.00479147862643,1.0,0.0,0.0,0.0,1.0,0.0,0.0,0.0,1.0,-0.189077560604,-0.299811439961,9.73177530766,0.1,0.0,0.0,0.0,0.1,0.0,0.0,0.0,0.1
1405689222124537615,307,1405689222124537615,ardrone_base_link,0.0704948985851,0.00965033191254,-0.00444329014122,0.997455561687,1.0,0.0,0.0,0.0,1.0,0.0,0.0,0.0,100000.0,-0.000899456441402,-0.00241392850876,-0.00411056820303,1.0,0.0,0.0,0.0,1.0,0.0,0.0,0.0,1.0,-0.190720833465,-0.299222331122,9.70869650841,0.1,0.0,0.0,0.0,0.1,0.0,0.0,0.0,0.1
1405689222129068798,308,1405689222129068798,ardrone_base_link,0.0704949827964,0.00964971673539,-0.0044519944801,0.997455522874,1.0,0.0,0.0,0.0,1.0,0.0,0.0,0.0,100000.0,-0.00380656518973,-0.00106438994408,-0.00392632000148,1.0,0.0,0.0,0.0,1.0,0.0,0.0,0.0,1.0,-0.191038104892,-0.299846542254,9.71461311579,0.1,0.0,0.0,0.0,0.1,0.0,0.0,0.0,0.1
1405689222134043332,309,1405689222134043332,ardrone_base_link,0.0704776017705,0.00965849830655,-0.00445244041008,0.997456664138,1.0,0.0,0.0,0.0,1.0,0.0,0.0,0.0,100000.0,-0.00286180526018,-0.0026770979166,-0.00582625810057,1.0,0.0,0.0,0.0,1.0,0.0,0.0,0.0,1.0,-0.191051649302,-0.3008733619,9.71759449244,0.1,0.0,0.0,0.0,0.1,0.0,0.0,0.0,0.1
1405689222138496854,310,1405689222138496854,ardrone_base_link,0.0704775751459,0.00964979443033,-0.00445182607212,0.997456753004,1.0,0.0,0.0,0.0,1.0,0.0,0.0,0.0,100000.0,-0.000715263187885,-0.0052334703505,-0.00394203793257,1.0,0.0,0.0,0.0,1.0,0.0,0.0,0.0,1.0,-0.190848683938,-0.302131933346,9.71589235067,0.1,0.0,0.0,0.0,0.1,0.0,0.0,0.0,0.1
1405689222155703966,311,1405689222155703966,ardrone_base_link,0.0704689513715,0.00964921832692,-0.00446044644153,0.997457329361,1.0,0.0,0.0,0.0,1.0,0.0,0.0,0.0,100000.0,-0.00444194674492,-0.00363042205572,-0.00347134843469,1.0,0.0,0.0,0.0,1.0,0.0,0.0,0.0,1.0,-0.16867223084,-0.302587606013,9.69243386984,0.1,0.0,0.0,0.0,0.1,0.0,0.0,0.0,0.1
1405689222156281893,312,1405689222156281893,ardrone_base_link,0.0704688405281,0.00964112837526,-0.00445112749192,0.997457457049,1.0,0.0,0.0,0.0,1.0,0.0,0.0,0.0,100000.0,0.000703599303961,-0.00743236765265,-0.00122902542353,1.0,0.0,0.0,0.0,1.0,0.0,0.0,0.0,1.0,-0.16962614432,-0.30312974751,9.66945787668,0.1,0.0,0.0,0.0,0.1,0.0,0.0,0.0,0.1
1405689222156790519,313,1405689222156790519,ardrone_base_link,0.0704689246617,0.00964051340718,-0.00445983210675,0.997457418167,1.0,0.0,0.0,0.0,1.0,0.0,0.0,0.0,100000.0,-0.00274434685707,-0.0026897341013,-0.000390809960663,1.0,0.0,0.0,0.0,1.0,0.0,0.0,0.0,1.0,-0.197464781627,-0.326945895702,9.67498720884,0.1,0.0,0.0,0.0,0.1,0.0,0.0,0.0,0.1
1405689222160169349,314,1405689222160169349,ardrone_base_link,0.0704690355731,0.0096486033762,-0.00446915079583,0.997457290399,1.0,0.0,0.0,0.0,1.0,0.0,0.0,0.0,100000.0,-0.000627785921097,-0.00194527965505,-0.00152711954433,1.0,0.0,0.0,0.0,1.0,0.0,0.0,0.0,1.0,-0.195534447581,-0.349325752258,9.67677696943,0.1,0.0,0.0,0.0,0.1,0.0,0.0,0.0,0.1
1405689222165030331,315,1405689222165030331,ardrone_base_link,0.0704689780728,0.00965792220827,-0.00446106070273,0.99745724049,1.0,0.0,0.0,0.0,1.0,0.0,0.0,0.0,100000.0,0.00146413967013,-0.00113479793072,-0.00139420386404,1.0,0.0,0.0,0.0,1.0,0.0,0.0,0.0,1.0,-0.190970930457,-0.321085911989,9.6763435483,0.1,0.0,0.0,0.0,0.1,0.0,0.0,0.0,0.1
1405689222170060818,316,1405689222170060818,ardrone_base_link,0.0704690047719,0.00966662712653,-0.00446167503682,0.997457151532,1.0,0.0,0.0,0.0,1.0,0.0,0.0,0.0,100000.0,-0.000346001266735,0.00131998956203,-0.00176553823985,1.0,0.0,0.0,0.0,1.0,0.0,0.0,0.0,1.0,-0.193344487995,-0.318421386927,9.67697089911,0.1,0.0,0.0,0.0,0.1,0.0,0.0,0.0,0.1
1405689222174444898,317,1405689222174444898,ardrone_base_link,0.0704690314624,0.00967533100641,-0.00446228929735,0.997457062509,1.0,0.0,0.0,0.0,1.0,0.0,0.0,0.0,100000.0,0.00140712037683,-0.00159899902064,-0.00157877639867,1.0,0.0,0.0,0.0,1.0,0.0,0.0,0.0,1.0,-0.170460713655,-0.32435336411,9.67599657774,0.1,0.0,0.0,0.0,0.1,0.0,0.0,0.0,0.1
1405689222178526624,318,1405689222178526624,ardrone_base_link,0.0704690314624,0.00967533100641,-0.00446228929735,0.997457062509,1.0,0.0,0.0,0.0,1.0,0.0,0.0,0.0,100000.0,0.000174339860678,6.14114105701e-05,-0.00260423496366,1.0,0.0,0.0,0.0,1.0,0.0,0.0,0.0,1.0,-0.147564636171,-0.298643554002,9.67685874701,0.1,0.0,0.0,0.0,0.1,0.0,0.0,0.0,0.1
1405689222184549710,319,1405689222184549710,ardrone_base_link,0.0704603234758,0.00967536996264,-0.00446220482976,0.997457677679,1.0,0.0,0.0,0.0,1.0,0.0,0.0,0.0,100000.0,-0.00290463492274,-0.000466730445623,-0.00230050738901,1.0,0.0,0.0,0.0,1.0,0.0,0.0,0.0,1.0,-0.15110697411,-0.300279470533,9.70019572973,0.1,0.0,0.0,0.0,0.1,0.0,0.0,0.0,0.1
1405689222188423874,320,1405689222188423874,ardrone_base_link,0.0704517349812,0.00968349900879,-0.00447143898577,0.997458164094,1.0,0.0,0.0,0.0,1.0,0.0,0.0,0.0,100000.0,-0.00362464785576,-0.000912010669708,-0.00443419581279,1.0,0.0,0.0,0.0,1.0,0.0,0.0,0.0,1.0,-0.175036077574,-0.305798799545,9.72347079515,0.1,0.0,0.0,0.0,0.1,0.0,0.0,0.0,0.1
1405689222199712096,321,1405689222199712096,ardrone_base_link,0.0704431114861,0.00968292332042,-0.00448005881383,0.997458740056,1.0,0.0,0.0,0.0,1.0,0.0,0.0,0.0,100000.0,-0.00396976992488,-0.00276394560933,-0.00447231438011,1.0,0.0,0.0,0.0,1.0,0.0,0.0,0.0,1.0,-0.194070866331,-0.304281551763,9.74170485735,0.1,0.0,0.0,0.0,0.1,0.0,0.0,0.0,0.1
1405689222201715438,322,1405689222201715438,ardrone_base_link,0.0704431114861,0.00968292332042,-0.00448005881383,0.997458740056,1.0,0.0,0.0,0.0,1.0,0.0,0.0,0.0,100000.0,-0.00391296669841,-0.0019963234663,-0.00454649468884,1.0,0.0,0.0,0.0,1.0,0.0,0.0,0.0,1.0,-0.165297573432,-0.304526592419,9.760871768,0.1,0.0,0.0,0.0,0.1,0.0,0.0,0.0,0.1
1405689222203673637,323,1405689222203673637,ardrone_base_link,0.0704257882784,0.0096823869135,-0.00448859446308,0.997459930147,1.0,0.0,0.0,0.0,1.0,0.0,0.0,0.0,100000.0,-0.00214790180326,-0.00343296676874,-0.00612837355584,1.0,0.0,0.0,0.0,1.0,0.0,0.0,0.0,1.0,-0.140649101138,-0.302742381021,9.75622271299,0.1,0.0,0.0,0.0,0.1,0.0,0.0,0.0,0.1
1405689222209851272,324,1405689222209851272,ardrone_base_link,0.0704257037794,0.00968300150513,-0.00447988982633,0.99745996928,1.0,0.0,0.0,0.0,1.0,0.0,0.0,0.0,100000.0,-0.000339947640896,-0.0017373599112,-0.00334700476378,1.0,0.0,0.0,0.0,1.0,0.0,0.0,0.0,1.0,-0.17216017209,-0.301717076451,9.73003870249,0.1,0.0,0.0,0.0,0.1,0.0,0.0,0.0,0.1
1405689222213655817,325,1405689222213655817,ardrone_base_link,0.070417022607,0.00969174556278,-0.00448041916746,0.997460494876,1.0,0.0,0.0,0.0,1.0,0.0,0.0,0.0,100000.0,-0.00188041105866,-0.00165891647339,-0.00334177725017,1.0,0.0,0.0,0.0,1.0,0.0,0.0,0.0,1.0,-0.198271970078,-0.300463634357,9.7094769001,0.1,0.0,0.0,0.0,0.1,0.0,0.0,0.0,0.1
1405689222218768817,326,1405689222218768817,ardrone_base_link,0.0704170802667,0.00968242609939,-0.00448850993389,0.997460544939,1.0,0.0,0.0,0.0,1.0,0.0,0.0,0.0,100000.0,-0.00294394046068,-0.00499434396625,-0.00282379426062,1.0,0.0,0.0,0.0,1.0,0.0,0.0,0.0,1.0,-0.191225098073,-0.300759694725,9.73789577484,0.1,0.0,0.0,0.0,0.1,0.0,0.0,0.0,0.1
1405689222223959214,327,1405689222223959214,ardrone_base_link,0.0704084650427,0.00968185082504,-0.00449712987266,0.997461119863,1.0,0.0,0.0,0.0,1.0,0.0,0.0,0.0,100000.0,-0.00352304801345,-0.00395778939128,-0.00272240792401,1.0,0.0,0.0,0.0,1.0,0.0,0.0,0.0,1.0,-0.189351862296,-0.301140763611,9.74055413008,0.1,0.0,0.0,0.0,0.1,0.0,0.0,0.0,0.1
1405689222228896930,328,1405689222228896930,ardrone_base_link,0.0703998144355,0.00967257076176,-0.00450513627854,0.997461784355,1.0,0.0,0.0,0.0,1.0,0.0,0.0,0.0,100000.0,-0.00474634766579,-0.00746910693124,-0.00395634584129,1.0,0.0,0.0,0.0,1.0,0.0,0.0,0.0,1.0,-0.192622034252,-0.300942854583,9.71006803513,0.1,0.0,0.0,0.0,0.1,0.0,0.0,0.0,0.1
1405689222233804752,329,1405689222233804752,ardrone_base_link,0.070391114709,0.00967261005456,-0.00450505191554,0.997462398335,1.0,0.0,0.0,0.0,1.0,0.0,0.0,0.0,100000.0,-0.00240334495902,-0.00524935871363,-0.00499200355262,1.0,0.0,0.0,0.0,1.0,0.0,0.0,0.0,1.0,-0.192592262104,-0.301774156466,9.71336250305,0.1,0.0,0.0,0.0,0.1,0.0,0.0,0.0,0.1
1405689222238709269,330,1405689222238709269,ardrone_base_link,0.0703910032939,0.00966452041645,-0.00449573368341,0.997462526654,1.0,0.0,0.0,0.0,1.0,0.0,0.0,0.0,100000.0,2.49110162258e-05,-0.0060973726213,-0.00261477660388,1.0,0.0,0.0,0.0,1.0,0.0,0.0,0.0,1.0,-0.192626816779,-0.302438727021,9.71794146299,0.1,0.0,0.0,0.0,0.1,0.0,0.0,0.0,0.1
1405689222258642206,331,1405689222258642206,ardrone_base_link,0.070391114709,0.00967261005456,-0.00450505191554,0.997462398335,1.0,0.0,0.0,0.0,1.0,0.0,0.0,0.0,100000.0,-0.00181639939547,-0.00290673598647,-0.00255411677063,1.0,0.0,0.0,0.0,1.0,0.0,0.0,0.0,1.0,-0.192838726565,-0.302648628876,9.71596711874,0.1,0.0,0.0,0.0,0.1,0.0,0.0,0.0,0.1
1405689222259262720,332,1405689222259262720,ardrone_base_link,0.0703823222618,0.00967326359718,-0.00449626280804,0.9974630521,1.0,0.0,0.0,0.0,1.0,0.0,0.0,0.0,100000.0,-0.00042076036334,-0.00367792695761,-0.00301567744464,1.0,0.0,0.0,0.0,1.0,0.0,0.0,0.0,1.0,-0.192277728766,-0.303479547426,9.73980937004,0.1,0.0,0.0,0.0,0.1,0.0,0.0,0.0,0.1
1405689222259899482,333,1405689222259899482,ardrone_base_link,0.0703824337517,0.00968135435333,-0.00450558104156,0.99746292369,1.0,0.0,0.0,0.0,1.0,0.0,0.0,0.0,100000.0,-0.00183708593249,-0.00054008513689,-0.00127259921283,1.0,0.0,0.0,0.0,1.0,0.0,0.0,0.0,1.0,-0.192114849016,-0.303709674627,9.73902430534,0.1,0.0,0.0,0.0,0.1,0.0,0.0,0.0,0.1
1405689222260458915,334,1405689222260458915,ardrone_base_link,0.0703737340152,0.00968139365002,-0.00450549660195,0.997463537518,1.0,0.0,0.0,0.0,1.0,0.0,0.0,0.0,100000.0,-0.00458442419767,-0.00284972414374,-0.00510734831914,1.0,0.0,0.0,0.0,1.0,0.0,0.0,0.0,1.0,-0.192589104176,-0.303280415386,9.71071583033,0.1,0.0,0.0,0.0,0.1,0.0,0.0,0.0,0.1
1405689222263867788,335,1405689222263867788,ardrone_base_link,0.0703737340152,0.00968139365002,-0.00450549660195,0.997463537518,1.0,0.0,0.0,0.0,1.0,0.0,0.0,0.0,100000.0,-0.000195536762476,-0.00411645695567,-0.00274921674281,1.0,0.0,0.0,0.0,1.0,0.0,0.0,0.0,1.0,-0.190726309642,-0.304311378673,9.73669189215,0.1,0.0,0.0,0.0,0.1,0.0,0.0,0.0,0.1
1405689222269872503,336,1405689222269872503,ardrone_base_link,0.070365137603,0.00968952391859,-0.00451472991209,0.997464023286,1.0,0.0,0.0,0.0,1.0,0.0,0.0,0.0,100000.0,-0.00237126275897,-0.00152944773436,-0.00221397262067,1.0,0.0,0.0,0.0,1.0,0.0,0.0,0.0,1.0,-0.188515832648,-0.305177527294,9.76424684525,0.1,0.0,0.0,0.0,0.1,0.0,0.0,0.0,0.1
1405689222273894743,337,1405689222273894743,ardrone_base_link,0.0703650530443,0.00969013796263,-0.00450602549902,0.997464062646,1.0,0.0,0.0,0.0,1.0,0.0,0.0,0.0,100000.0,-4.58955764771e-05,-0.00369868800044,-0.00398800009862,1.0,0.0,0.0,0.0,1.0,0.0,0.0,0.0,1.0,-0.187693913281,-0.304805512354,9.75645461082,0.1,0.0,0.0,0.0,0.1,0.0,0.0,0.0,0.1
1405689222278655778,338,1405689222278655778,ardrone_base_link,0.0703650801078,0.0096988419034,-0.00450663884316,0.997463973371,1.0,0.0,0.0,0.0,1.0,0.0,0.0,0.0,100000.0,-0.00124848261476,0.00197344645858,-0.000984630547464,1.0,0.0,0.0,0.0,1.0,0.0,0.0,0.0,1.0,-0.187046848238,-0.304435870424,9.75392301083,0.1,0.0,0.0,0.0,0.1,0.0,0.0,0.0,0.1
1405689222285190299,339,1405689222285190299,ardrone_base_link,0.0703564838341,0.00970697226134,-0.00451587192809,0.997464458902,1.0,0.0,0.0,0.0,1.0,0.0,0.0,0.0,100000.0,-0.00478323549032,-0.000289253890514,-0.00463626021519,1.0,0.0,0.0,0.0,1.0,0.0,0.0,0.0,1.0,-0.187528916076,-0.303565559909,9.7319114089,0.1,0.0,0.0,0.0,0.1,0.0,0.0,0.0,0.1
1405689222288445998,340,1405689222288445998,ardrone_base_link,0.0703478687927,0.00970639773614,-0.00452449194633,0.997465033057,1.0,0.0,0.0,0.0,1.0,0.0,0.0,0.0,100000.0,-0.00302821025252,-0.00279649347067,-0.00439391098917,1.0,0.0,0.0,0.0,1.0,0.0,0.0,0.0,1.0,-0.16663963832,-0.30183625631,9.68499619961,0.1,0.0,0.0,0.0,0.1,0.0,0.0,0.0,0.1
1405689222293914557,341,1405689222293914557,ardrone_base_link,0.0703391607365,0.00970643723542,-0.00452440720752,0.997465647169,1.0,0.0,0.0,0.0,1.0,0.0,0.0,0.0,100000.0,-0.00395964831114,-0.00241051986814,-0.0031600818038,1.0,0.0,0.0,0.0,1.0,0.0,0.0,0.0,1.0,-0.145287687518,-0.300928653032,9.66730303764,0.1,0.0,0.0,0.0,0.1,0.0,0.0,0.0,0.1
1405689222298642200,342,1405689222298642200,ardrone_base_link,0.0703304065412,0.00968906773598,-0.00452309639887,0.997466439276,1.0,0.0,0.0,0.0,1.0,0.0,0.0,0.0,100000.0,-0.000286765396595,-0.00614985078573,-0.00544770015404,1.0,0.0,0.0,0.0,1.0,0.0,0.0,0.0,1.0,-0.150669537112,-0.300960761681,9.67603337765,0.1,0.0,0.0,0.0,0.1,0.0,0.0,0.0,0.1
1405689222303903313,343,1405689222303903313,ardrone_base_link,0.0703303219839,0.00968968149523,-0.0045143917053,0.99746647871,1.0,0.0,0.0,0.0,1.0,0.0,0.0,0.0,100000.0,0.00168196856976,-0.00335649400949,-0.00317179784179,1.0,0.0,0.0,0.0,1.0,0.0,0.0,0.0,1.0,-0.153883724287,-0.300648856908,9.67766016722,0.1,0.0,0.0,0.0,0.1,0.0,0.0,0.0,0.1
1405689222308833016,344,1405689222308833016,ardrone_base_link,0.070321586763,0.00968101590065,-0.00451369407544,0.997467181882,1.0,0.0,0.0,0.0,1.0,0.0,0.0,0.0,100000.0,0.00108481571078,-0.00414778292179,-0.00475623691455,1.0,0.0,0.0,0.0,1.0,0.0,0.0,0.0,1.0,-0.153067226335,-0.300298472866,9.67631551027,0.1,0.0,0.0,0.0,0.1,0.0,0.0,0.0,0.1
1405689222314138296,345,1405689222314138296,ardrone_base_link,0.0703127754224,0.00967296384416,-0.00450429223063,0.997467923662,1.0,0.0,0.0,0.0,1.0,0.0,0.0,0.0,100000.0,0.000759284943342,-0.00631322711706,-0.00464767450467,1.0,0.0,0.0,0.0,1.0,0.0,0.0,0.0,1.0,-0.154502039403,-0.300401516259,9.67663385868,0.1,0.0,0.0,0.0,0.1,0.0,0.0,0.0,0.1
1405689222325080893,346,1405689222325080893,ardrone_base_link,0.0703040402558,0.00966429918666,-0.00450359497023,0.997468626513,1.0,0.0,0.0,0.0,1.0,0.0,0.0,0.0,100000.0,-0.000525943934917,-0.00525561347604,-0.00253386329859,1.0,0.0,0.0,0.0,1.0,0.0,0.0,0.0,1.0,-0.155495144054,-0.300993710011,9.67675360441,0.1,0.0,0.0,0.0,0.1,0.0,0.0,0.0,0.1
1405689222325447700,347,1405689222325447700,ardrone_base_link,0.070303928897,0.00965620769675,-0.00449427736994,0.997468754751,1.0,0.0,0.0,0.0,1.0,0.0,0.0,0.0,100000.0,-5.54323196411e-06,-0.0043697245419,-0.00341136939824,1.0,0.0,0.0,0.0,1.0,0.0,0.0,0.0,1.0,-0.156594157964,-0.301910841838,9.67677288055,0.1,0.0,0.0,0.0,0.1,0.0,0.0,0.0,0.1
1405689222328415155,348,1405689222328415155,ardrone_base_link,0.070303928897,0.00965620769675,-0.00449427736994,0.997468754751,1.0,0.0,0.0,0.0,1.0,0.0,0.0,0.0,100000.0,0.000741459429264,-0.00125424202997,-0.00152219750453,1.0,0.0,0.0,0.0,1.0,0.0,0.0,0.0,1.0,-0.157108042389,-0.302791757882,9.67666014433,0.1,0.0,0.0,0.0,0.1,0.0,0.0,0.0,0.1
1405689222333783795,349,1405689222333783795,ardrone_base_link,0.0702952478268,0.00966495195668,-0.00449480588094,0.997469279505,1.0,0.0,0.0,0.0,1.0,0.0,0.0,0.0,100000.0,-0.00206846371293,-0.000555202364922,-0.00254169339314,1.0,0.0,0.0,0.0,1.0,0.0,0.0,0.0,1.0,-0.156522127986,-0.303996553272,9.70013848543,0.1,0.0,0.0,0.0,0.1,0.0,0.0,0.0,0.1
1405689222338652221,350,1405689222338652221,ardrone_base_link,0.0702953321683,0.00966433850351,-0.00450351059895,0.997469240242,1.0,0.0,0.0,0.0,1.0,0.0,0.0,0.0,100000.0,-0.0039421916008,-0.00177113339305,-0.00356250349432,1.0,0.0,0.0,0.0,1.0,0.0,0.0,0.0,1.0,-0.177958366275,-0.305035785586,9.72353738546,0.1,0.0,0.0,0.0,0.1,0.0,0.0,0.0,0.1
1405689222345874728,351,1405689222345874728,ardrone_base_link,0.0702954436637,0.00967242905343,-0.0045128277939,0.997469111853,1.0,0.0,0.0,0.0,1.0,0.0,0.0,0.0,100000.0,-0.00672438368201,-0.00327488407493,-0.00206913473085,1.0,0.0,0.0,0.0,1.0,0.0,0.0,0.0,1.0,-0.199251475558,-0.304826705158,9.71824520826,0.1,0.0,0.0,0.0,0.1,0.0,0.0,0.0,0.1
1405689222348770691,352,1405689222348770691,ardrone_base_link,0.0702868853649,0.00966253768255,-0.00452953995693,0.997469735069,1.0,0.0,0.0,0.0,1.0,0.0,0.0,0.0,100000.0,-0.00553899258375,-0.00497904419899,-0.00454767933115,1.0,0.0,0.0,0.0,1.0,0.0,0.0,0.0,1.0,-0.192477700487,-0.303862186149,9.71512480974,0.1,0.0,0.0,0.0,0.1,0.0,0.0,0.0,0.1
1405689222354068015,353,1405689222354068015,ardrone_base_link,0.0702782615884,0.0096619639217,-0.00453816032836,0.997470309083,1.0,0.0,0.0,0.0,1.0,0.0,0.0,0.0,100000.0,-0.00498870387673,-0.00359457358718,-0.00242870417424,1.0,0.0,0.0,0.0,1.0,0.0,0.0,0.0,1.0,-0.165657230467,-0.30230153054,9.7161996007,0.1,0.0,0.0,0.0,0.1,0.0,0.0,0.0,0.1
1405689222358711929,354,1405689222358711929,ardrone_base_link,0.0702782615884,0.0096619639217,-0.00453816032836,0.997470309083,1.0,0.0,0.0,0.0,1.0,0.0,0.0,0.0,100000.0,-0.00156117614824,-0.00227318727411,-0.00377128645778,1.0,0.0,0.0,0.0,1.0,0.0,0.0,0.0,1.0,-0.144370911643,-0.300463853404,9.71529946327,0.1,0.0,0.0,0.0,0.1,0.0,0.0,0.0,0.1
1405689222364026164,355,1405689222364026164,ardrone_base_link,0.0702694501417,0.00965391169131,-0.00452875874449,0.997471050562,1.0,0.0,0.0,0.0,1.0,0.0,0.0,0.0,100000.0,-0.00050088390708,-0.00430741906166,-0.00495630595833,1.0,0.0,0.0,0.0,1.0,0.0,0.0,0.0,1.0,-0.149308214337,-0.299087890983,9.71551558971,0.1,0.0,0.0,0.0,0.1,0.0,0.0,0.0,0.1
1405689222379431650,356,1405689222379431650,ardrone_base_link,0.070260742033,0.00965395122784,-0.00452867446389,0.99747166399,1.0,0.0,0.0,0.0,1.0,0.0,0.0,0.0,100000.0,-0.00075801461935,-0.00237314775586,-0.00392313022166,1.0,0.0,0.0,0.0,1.0,0.0,0.0,0.0,1.0,-0.175183678791,-0.298573440686,9.71592214108,0.1,0.0,0.0,0.0,0.1,0.0,0.0,0.0,0.1
1405689222379998321,357,1405689222379998321,ardrone_base_link,0.0702520422203,0.00965399072594,-0.00452859026329,0.997472276756,1.0,0.0,0.0,0.0,1.0,0.0,0.0,0.0,100000.0,-0.000920474529266,-0.00570556893945,-0.00489063281566,1.0,0.0,0.0,0.0,1.0,0.0,0.0,0.0,1.0,-0.19605765976,-0.29894640483,9.71652729511,0.1,0.0,0.0,0.0,0.1,0.0,0.0,0.0,0.1
1405689222381190037,358,1405689222381190037,ardrone_base_link,0.070243418347,0.00965341726088,-0.00453721073151,0.997472850474,1.0,0.0,0.0,0.0,1.0,0.0,0.0,0.0,100000.0,-0.00485386326909,-0.00412097200751,-0.00281021744013,1.0,0.0,0.0,0.0,1.0,0.0,0.0,0.0,1.0,-0.191730585694,-0.299928265065,9.71638360023,0.1,0.0,0.0,0.0,0.1,0.0,0.0,0.0,0.1
1405689222383825356,359,1405689222383825356,ardrone_base_link,0.0702435025853,0.00965280427828,-0.00454591522126,0.997472810842,1.0,0.0,0.0,0.0,1.0,0.0,0.0,0.0,100000.0,-0.00587930902839,-0.00308924913406,-0.00162293761969,1.0,0.0,0.0,0.0,1.0,0.0,0.0,0.0,1.0,-0.189351387694,-0.301497481763,9.71627612114,0.1,0.0,0.0,0.0,0.1,0.0,0.0,0.0,0.1
1405689222389195443,360,1405689222389195443,ardrone_base_link,0.0702435868182,0.00965219129496,-0.00455461971066,0.997472771134,1.0,0.0,0.0,0.0,1.0,0.0,0.0,0.0,100000.0,-0.00547616556287,-0.00152966380119,-0.000648684799671,1.0,0.0,0.0,0.0,1.0,0.0,0.0,0.0,1.0,-0.191083666682,-0.280566457286,9.71740056276,0.1,0.0,0.0,0.0,0.1,0.0,0.0,0.0,0.1
1405689222394139203,361,1405689222394139203,ardrone_base_link,0.0702436143731,0.00966089634978,-0.00455523206111,0.997472682123,1.0,0.0,0.0,0.0,1.0,0.0,0.0,0.0,100000.0,-0.00293021649122,-0.0023745521903,-0.00261852797121,1.0,0.0,0.0,0.0,1.0,0.0,0.0,0.0,1.0,-0.190384504944,-0.259502526,9.71839824915,0.1,0.0,0.0,0.0,0.1,0.0,0.0,0.0,0.1
1405689222398691993,362,1405689222398691993,ardrone_base_link,0.0702348219409,0.009661549025,-0.00454644322556,0.997473335038,1.0,0.0,0.0,0.0,1.0,0.0,0.0,0.0,100000.0,0.000226557254791,-0.00357191637158,-0.00361637677997,1.0,0.0,0.0,0.0,1.0,0.0,0.0,0.0,1.0,-0.191489323601,-0.264529218152,9.69473298788,0.1,0.0,0.0,0.0,0.1,0.0,0.0,0.0,0.1
1405689222404152789,363,1405689222404152789,ardrone_base_link,0.0702347376263,0.00966216193184,-0.00453773873123,0.997473374675,1.0,0.0,0.0,0.0,1.0,0.0,0.0,0.0,100000.0,-0.000119760632515,-0.00442662835121,-0.00432004965842,1.0,0.0,0.0,0.0,1.0,0.0,0.0,0.0,1.0,-0.192443620414,-0.288821264356,9.67067110538,0.1,0.0,0.0,0.0,0.1,0.0,0.0,0.0,0.1
1405689222411515336,364,1405689222411515336,ardrone_base_link,0.0702260103941,0.00965349644302,-0.00453704225894,0.997474076214,1.0,0.0,0.0,0.0,1.0,0.0,0.0,0.0,100000.0,-0.00118752941489,-0.00543925911188,-0.00376727432013,1.0,0.0,0.0,0.0,1.0,0.0,0.0,0.0,1.0,-0.169739245623,-0.308527213335,9.67497494221,0.1,0.0,0.0,0.0,0.1,0.0,0.0,0.0,0.1
1405689222413922450,365,1405689222413922450,ardrone_base_link,0.0702260946331,0.00965288361233,-0.00454574675938,0.997474036583,1.0,0.0,0.0,0.0,1.0,0.0,0.0,0.0,100000.0,-0.00497605651617,-0.00319304317236,-0.00263324007392,1.0,0.0,0.0,0.0,1.0,0.0,0.0,0.0,1.0,-0.146999147907,-0.3029635638,9.67771974802,0.1,0.0,0.0,0.0,0.1,0.0,0.0,0.0,0.1
1405689222430322949,366,1405689222430322949,ardrone_base_link,0.0702174707323,0.00965231054175,-0.00455436699321,0.997474609926,1.0,0.0,0.0,0.0,1.0,0.0,0.0,0.0,100000.0,-0.00336016342044,-0.000797122716904,-0.00313520524651,1.0,0.0,0.0,0.0,1.0,0.0,0.0,0.0,1.0,-0.152343476564,-0.300195520744,9.67632485628,0.1,0.0,0.0,0.0,0.1,0.0,0.0,0.0,0.1
1405689222431616079,367,1405689222431616079,ardrone_base_link,0.0702087708938,0.00965235026394,-0.00455428280692,0.997475222315,1.0,0.0,0.0,0.0,1.0,0.0,0.0,0.0,100000.0,-0.00129923596978,-0.00251654535532,-0.0049489820376,1.0,0.0,0.0,0.0,1.0,0.0,0.0,0.0,1.0,-0.15539679192,-0.302324968576,9.67674075365,0.1,0.0,0.0,0.0,0.1,0.0,0.0,0.0,0.1
1405689222431681087,368,1405689222431681087,ardrone_base_link,0.0702000351878,0.00964368597871,-0.00455358664194,0.997475924135,1.0,0.0,0.0,0.0,1.0,0.0,0.0,0.0,100000.0,-0.00342355668545,-0.00373876094818,-0.0043206308037,1.0,0.0,0.0,0.0,1.0,0.0,0.0,0.0,1.0,-0.153924302757,-0.301862414181,9.67663561106,0.1,0.0,0.0,0.0,0.1,0.0,0.0,0.0,0.1
1405689222433472604,369,1405689222433472604,ardrone_base_link,0.0701912994663,0.00963502064364,-0.0045528905553,0.997476625813,1.0,0.0,0.0,0.0,1.0,0.0,0.0,0.0,100000.0,0.00105257704854,-0.00430830195546,-0.00490686763078,1.0,0.0,0.0,0.0,1.0,0.0,0.0,0.0,1.0,-0.15433361046,-0.301847172156,9.67681493759,0.1,0.0,0.0,0.0,0.1,0.0,0.0,0.0,0.1
1405689222438836524,370,1405689222438836524,ardrone_base_link,0.0701912718907,0.00962631555456,-0.00455227865965,0.997476714594,1.0,0.0,0.0,0.0,1.0,0.0,0.0,0.0,100000.0,-0.00324859470129,-0.00808106735349,-0.00265925121494,1.0,0.0,0.0,0.0,1.0,0.0,0.0,0.0,1.0,-0.153270465508,-0.302103530243,9.70008533001,0.1,0.0,0.0,0.0,0.1,0.0,0.0,0.0,0.1
1405689222444188105,371,1405689222444188105,ardrone_base_link,0.070191244313,0.00961761150242,-0.00455166683659,0.997476803289,1.0,0.0,0.0,0.0,1.0,0.0,0.0,0.0,100000.0,-0.000689145177603,-0.00228415429592,-0.00162778049707,1.0,0.0,0.0,0.0,1.0,0.0,0.0,0.0,1.0,-0.153421607986,-0.302021661401,9.69958765507,0.1,0.0,0.0,0.0,0.1,0.0,0.0,0.0,0.1
1405689222448784058,372,1405689222448784058,ardrone_base_link,0.0701824605239,0.0096182636517,-0.004542878423,0.997477455131,1.0,0.0,0.0,0.0,1.0,0.0,0.0,0.0,100000.0,0.00155661255121,-0.00182149559259,-0.00200668349862,1.0,0.0,0.0,0.0,1.0,0.0,0.0,0.0,1.0,-0.153700819984,-0.301851607859,9.69437900782,0.1,0.0,0.0,0.0,0.1,0.0,0.0,0.0,0.1
1405689222453696111,373,1405689222453696111,ardrone_base_link,0.0701825720339,0.00962635525854,-0.00455219470008,0.997477326755,1.0,0.0,0.0,0.0,1.0,0.0,0.0,0.0,100000.0,-0.00288185104728,-0.00113115087152,-0.00217497069389,1.0,0.0,0.0,0.0,1.0,0.0,0.0,0.0,1.0,-0.17577152811,-0.302944798768,9.72050577402,0.1,0.0,0.0,0.0,0.1,0.0,0.0,0.0,0.1
1405689222458931724,374,1405689222458931724,ardrone_base_link,0.0701738073638,0.00963571247456,-0.00454401787005,0.997477890335,1.0,0.0,0.0,0.0,1.0,0.0,0.0,0.0,100000.0,-0.000159300863743,-0.00110962241888,-0.00427373684943,1.0,0.0,0.0,0.0,1.0,0.0,0.0,0.0,1.0,-0.199073207751,-0.302830036357,9.69650814533,0.1,0.0,0.0,0.0,0.1,0.0,0.0,0.0,0.1
1405689222464079846,375,1405689222464079846,ardrone_base_link,0.0701738638704,0.00962639499967,-0.00455211066005,0.997477939424,1.0,0.0,0.0,0.0,1.0,0.0,0.0,0.0,100000.0,-0.00263787433505,-0.00588189810514,-0.00348994182423,1.0,0.0,0.0,0.0,1.0,0.0,0.0,0.0,1.0,-0.194443866983,-0.302266428247,9.66840060949,0.1,0.0,0.0,0.0,0.1,0.0,0.0,0.0,0.1
1405689222473286248,376,1405689222473286248,ardrone_base_link,0.0701652480082,0.00962582238423,-0.00456073149871,0.99747851167,1.0,0.0,0.0,0.0,1.0,0.0,0.0,0.0,100000.0,-0.00430016219616,-0.00435984134674,-0.0036796014756,1.0,0.0,0.0,0.0,1.0,0.0,0.0,0.0,1.0,-0.190818017349,-0.302639556676,9.67629565001,0.1,0.0,0.0,0.0,0.1,0.0,0.0,0.0,0.1
1405689222475927759,377,1405689222475927759,ardrone_base_link,0.0701651640029,0.00962643470218,-0.00455202669979,0.997478551433,1.0,0.0,0.0,0.0,1.0,0.0,0.0,0.0,100000.0,0.000305112480419,-0.00444283010438,-0.00167180877179,1.0,0.0,0.0,0.0,1.0,0.0,0.0,0.0,1.0,-0.191243589297,-0.280169909075,9.67968182564,0.1,0.0,0.0,0.0,0.1,0.0,0.0,0.0,0.1
1405689222478823837,378,1405689222478823837,ardrone_base_link,0.0701651074967,0.00963575210649,-0.00454393382853,0.997478502343,1.0,0.0,0.0,0.0,1.0,0.0,0.0,0.0,100000.0,-0.00254978239536,-0.000900451093912,-0.000808223150671,1.0,0.0,0.0,0.0,1.0,0.0,0.0,0.0,1.0,-0.190044142306,-0.257794962823,9.6794475913,0.1,0.0,0.0,0.0,0.1,0.0,0.0,0.0,0.1
1405689222483806188,379,1405689222483806188,ardrone_base_link,0.0701650508279,0.0096450695098,-0.00453584095812,0.997478453112,1.0,0.0,0.0,0.0,1.0,0.0,0.0,0.0,100000.0,-0.000184591859579,-0.00172093883157,-0.00243541877717,1.0,0.0,0.0,0.0,1.0,0.0,0.0,0.0,1.0,-0.190342101082,-0.262843413651,9.67927761078,0.1,0.0,0.0,0.0,0.1,0.0,0.0,0.0,0.1
1405689222488690877,380,1405689222488690877,ardrone_base_link,0.0701649666546,0.00964568182603,-0.00452713615971,0.997478492658,1.0,0.0,0.0,0.0,1.0,0.0,0.0,0.0,100000.0,0.00138250738382,-0.00385825335979,-0.00212285248563,1.0,0.0,0.0,0.0,1.0,0.0,0.0,0.0,1.0,-0.19049198404,-0.265261291713,9.67917480469,0.1,0.0,0.0,0.0,0.1,0.0,0.0,0.0,0.1
1405689222494179335,381,1405689222494179335,ardrone_base_link,0.0701561743044,0.00964633356965,-0.00451834740628,0.99747914464,1.0,0.0,0.0,0.0,1.0,0.0,0.0,0.0,100000.0,-0.000573556870222,-0.00453202007338,-0.00345280673355,1.0,0.0,0.0,0.0,1.0,0.0,0.0,0.0,1.0,-0.19074854292,-0.263429656625,9.67947387695,0.1,0.0,0.0,0.0,0.1,0.0,0.0,0.0,0.1
1405689222498531812,382,1405689222498531812,ardrone_base_link,0.0701474471562,0.00963766786169,-0.00451765175348,0.997479845329,1.0,0.0,0.0,0.0,1.0,0.0,0.0,0.0,100000.0,-0.00105564668775,-0.00542852282524,-0.00372708518989,1.0,0.0,0.0,0.0,1.0,0.0,0.0,0.0,1.0,-0.190446531773,-0.287096542493,9.7015935421,0.1,0.0,0.0,0.0,0.1,0.0,0.0,0.0,0.1
