%time,field.header.seq,field.header.stamp,field.header.frame_id,field.orientation.x,field.orientation.y,field.orientation.z,field.orientation.w,field.orientation_covariance0,field.orientation_covariance1,field.orientation_covariance2,field.orientation_covariance3,field.orientation_covariance4,field.orientation_covariance5,field.orientation_covariance6,field.orientation_covariance7,field.orientation_covariance8,field.angular_velocity.x,field.angular_velocity.y,field.angular_velocity.z,field.angular_velocity_covariance0,field.angular_velocity_covariance1,field.angular_velocity_covariance2,field.angular_velocity_covariance3,field.angular_velocity_covariance4,field.angular_velocity_covariance5,field.angular_velocity_covariance6,field.angular_velocity_covariance7,field.angular_velocity_covariance8,field.linear_acceleration.x,field.linear_acceleration.y,field.linear_acceleration.z,field.linear_acceleration_covariance0,field.linear_acceleration_covariance1,field.linear_acceleration_covariance2,field.linear_acceleration_covariance3,field.linear_acceleration_covariance4,field.linear_acceleration_covariance5,field.linear_acceleration_covariance6,field.linear_acceleration_covariance7,field.linear_acceleration_covariance8
1405448445401079618,21,1405448445401079618,ardrone_base_link,-0.0395359621711,0.00844579210106,-0.00508872510399,0.999169495715,1.0,0.0,0.0,0.0,1.0,0.0,0.0,0.0,100000.0,-0.000233027152717,-0.00353613332845,6.02152758802e-05,1.0,0.0,0.0,0.0,1.0,0.0,0.0,0.0,1.0,0.0352700304706,-0.299188287556,9.7423216939,0.1,0.0,0.0,0.0,0.1,0.0,0.0,0.0,0.1
1405448445402411888,22,1405448445402411888,ardrone_base_link,-0.0395360122675,0.00843707283581,-0.00508907089463,0.999169565636,1.0,0.0,0.0,0.0,1.0,0.0,0.0,0.0,100000.0,-0.00134162697941,-0.00617531687021,4.79196969536e-05,1.0,0.0,0.0,0.0,1.0,0.0,0.0,0.0,1.0,0.0350031672511,-0.29831299372,9.72479851246,0.1,0.0,0.0,0.0,0.1,0.0,0.0,0.0,0.1
1405448445403676462,23,1405448445403676462,ardrone_base_link,-0.0395360122675,0.00843707283581,-0.00508907089463,0.999169565636,1.0,0.0,0.0,0.0,1.0,0.0,0.0,0.0,100000.0,-0.00170158781111,-0.00458016805351,-5.93723962083e-06,1.0,0.0,0.0,0.0,1.0,0.0,0.0,0.0,1.0,0.0345405991655,-0.297983802482,9.70493298769,0.1,0.0,0.0,0.0,0.1,0.0,0.0,0.0,0.1
1405448445405055098,24,1405448445405055098,ardrone_base_link,-0.0395360122675,0.00843707283581,-0.00508907089463,0.999169565636,1.0,0.0,0.0,0.0,1.0,0.0,0.0,0.0,100000.0,-0.000702749472111,-0.00576987955719,2.96710641123e-05,1.0,0.0,0.0,0.0,1.0,0.0,0.0,0.0,1.0,0.0356172155123,-0.299359126016,9.73240441084,0.1,0.0,0.0,0.0,0.1,0.0,0.0,0.0,0.1
1405448445406258796,25,1405448445406258796,ardrone_base_link,-0.0395360623639,0.0084283530502,-0.00508941670548,0.999169635485,1.0,0.0,0.0,0.0,1.0,0.0,0.0,0.0,100000.0,-0.000850212294608,-0.00447551021352,4.32377855759e-05,1.0,0.0,0.0,0.0,1.0,0.0,0.0,0.0,1.0,0.0354312719312,-0.3001739081,9.7353472352,0.1,0.0,0.0,0.0,0.1,0.0,0.0,0.0,0.1
1405448445409308658,26,1405448445409308658,ardrone_base_link,-0.0395360623639,0.0084283530502,-0.00508941670548,0.999169635485,1.0,0.0,0.0,0.0,1.0,0.0,0.0,0.0,100000.0,-0.00121047580615,-0.00427924701944,2.5401932362e-05,1.0,0.0,0.0,0.0,1.0,0.0,0.0,0.0,1.0,0.0337245050818,-0.299970267341,9.70492539406,0.1,0.0,0.0,0.0,0.1,0.0,0.0,0.0,0.1
1405448445410667775,27,1405448445410667775,ardrone_base_link,-0.0395360623639,0.0084283530502,-0.00508941670548,0.999169635485,1.0,0.0,0.0,0.0,1.0,0.0,0.0,0.0,100000.0,-0.00100505515002,-0.00513780070469,3.10877949232e-05,1.0,0.0,0.0,0.0,1.0,0.0,0.0,0.0,1.0,0.0331571092829,-0.300496838242,9.70829638243,0.1,0.0,0.0,0.0,0.1,0.0,0.0,0.0,0.1
1405448445413667643,28,1405448445413667643,ardrone_base_link,-0.0395360623639,0.0084283530502,-0.00508941670548,0.999169635485,1.0,0.0,0.0,0.0,1.0,0.0,0.0,0.0,100000.0,-0.00108634727076,-0.00502323638648,2.99088933389e-05,1.0,0.0,0.0,0.0,1.0,0.0,0.0,0.0,1.0,0.0336032876279,-0.301475211978,9.73614398241,0.1,0.0,0.0,0.0,0.1,0.0,0.0,0.0,0.1
1405448445446686458,29,1405448445446686458,ardrone_base_link,-0.0395360389785,0.00841997879694,-0.00509848179275,0.9991696608,1.0,0.0,0.0,0.0,1.0,0.0,0.0,0.0,100000.0,-0.00365140940994,-0.00476298108697,2.56697458099e-05,1.0,0.0,0.0,0.0,1.0,0.0,0.0,0.0,1.0,0.0340516952332,-0.302055796236,9.7571339488,0.1,0.0,0.0,0.0,0.1,0.0,0.0,0.0,0.1
1405448445447858875,30,1405448445447858875,ardrone_base_link,-0.0395360389785,0.00841997879694,-0.00509848179275,0.9991696608,1.0,0.0,0.0,0.0,1.0,0.0,0.0,0.0,100000.0,-0.00265278271399,-0.00489143561572,3.16195946652e-05,1.0,0.0,0.0,0.0,1.0,0.0,0.0,0.0,1.0,0.0337962270249,-0.301730620861,9.75178627968,0.1,0.0,0.0,0.0,0.1,0.0,0.0,0.0,0.1
1405448445449359439,31,1405448445449359439,ardrone_base_link,-0.0395359654953,0.00842032383013,-0.00510720160948,0.999169616267,1.0,0.0,0.0,0.0,1.0,0.0,0.0,0.0,100000.0,-0.00640272954479,-0.00479659345001,3.11925759888e-05,1.0,0.0,0.0,0.0,1.0,0.0,0.0,0.0,1.0,0.0338110081386,-0.3012873061,9.74849414825,0.1,0.0,0.0,0.0,0.1,0.0,0.0,0.0,0.1
1405448445450799894,32,1405448445450799894,ardrone_base_link,-0.0395358920135,0.00842066884213,-0.00511592090611,0.999169571661,1.0,0.0,0.0,0.0,1.0,0.0,0.0,0.0,100000.0,-0.00409280648455,-0.00481913983822,2.82513938146e-05,1.0,0.0,0.0,0.0,1.0,0.0,0.0,0.0,1.0,0.0332940091379,-0.300160418451,9.72711457014,0.1,0.0,0.0,0.0,0.1,0.0,0.0,0.0,0.1
1405448445451845139,33,1405448445451845139,ardrone_base_link,-0.0395359423291,0.00841194957626,-0.00511626669741,0.999169641344,1.0,0.0,0.0,0.0,1.0,0.0,0.0,0.0,100000.0,-0.00250327703543,-0.00491638854146,2.97470560326e-05,1.0,0.0,0.0,0.0,1.0,0.0,0.0,0.0,1.0,0.0332946160808,-0.276282498986,9.70464326143,0.1,0.0,0.0,0.0,0.1,0.0,0.0,0.0,0.1
1405448445453105935,34,1405448445453105935,ardrone_base_link,-0.0395359423291,0.00841194957626,-0.00511626669741,0.999169641344,1.0,0.0,0.0,0.0,1.0,0.0,0.0,0.0,100000.0,-0.00267415097915,-0.00485054496676,2.97531296383e-05,1.0,0.0,0.0,0.0,1.0,0.0,0.0,0.0,1.0,0.0351979776751,-0.254298369214,9.73494769335,0.1,0.0,0.0,0.0,0.1,0.0,0.0,0.0,0.1
1405448445454420846,35,1405448445454420846,ardrone_base_link,-0.039536089142,0.0084112595302,-0.00509882758283,0.999169730489,1.0,0.0,0.0,0.0,1.0,0.0,0.0,0.0,100000.0,0.00120391277596,-0.00482532382011,2.92888944387e-05,1.0,0.0,0.0,0.0,1.0,0.0,0.0,0.0,1.0,0.0354039070196,-0.259316372499,9.73707449436,0.1,0.0,0.0,0.0,0.1,0.0,0.0,0.0,0.1
1405448445455886201,36,1405448445455886201,ardrone_base_link,-0.0395273662046,0.00841121501617,-0.00509890101448,0.999170075608,1.0,0.0,0.0,0.0,1.0,0.0,0.0,0.0,100000.0,-0.00170908193104,-0.0048571638763,0.00141414231621,1.0,0.0,0.0,0.0,1.0,0.0,0.0,0.0,1.0,0.0352498256601,-0.261870443076,9.7301123023,0.1,0.0,0.0,0.0,0.1,0.0,0.0,0.0,0.1
1405448445457005385,37,1405448445457005385,ardrone_base_link,-0.0395274896877,0.00840215080775,-0.00509052742642,0.999170189683,1.0,0.0,0.0,0.0,1.0,0.0,0.0,0.0,100000.0,-0.000711326953024,-0.00484616309404,0.000935660325922,1.0,0.0,0.0,0.0,1.0,0.0,0.0,0.0,1.0,0.0354564600624,-0.260792238638,9.73284717798,0.1,0.0,0.0,0.0,0.1,0.0,0.0,0.0,0.1
1405448445458502643,38,1405448445458502643,ardrone_base_link,-0.0395188442239,0.00840176152479,-0.00508188143855,0.999170578948,1.0,0.0,0.0,0.0,1.0,0.0,0.0,0.0,100000.0,-0.00114679988474,-0.0048477165401,0.001543776365,1.0,0.0,0.0,0.0,1.0,0.0,0.0,0.0,1.0,0.0345643999986,-0.261512940004,9.70870585442,0.1,0.0,0.0,0.0,0.1,0.0,0.0,0.0,0.1
1405448445459671721,39,1405448445459671721,ardrone_base_link,-0.0395188442239,0.00840176152479,-0.00508188143855,0.999170578948,1.0,0.0,0.0,0.0,1.0,0.0,0.0,0.0,100000.0,-0.00401331298053,-0.00485472101718,0.000753664178774,1.0,0.0,0.0,0.0,1.0,0.0,0.0,0.0,1.0,0.0345435540192,-0.262636103854,9.70959606171,0.1,0.0,0.0,0.0,0.1,0.0,0.0,0.0,0.1
1405448445461093618,40,1405448445461093618,ardrone_base_link,-0.0395188442239,0.00840176152479,-0.00508188143855,0.999170578948,1.0,0.0,0.0,0.0,1.0,0.0,0.0,0.0,100000.0,-0.00252633518539,-0.00484319962561,-0.000691087916493,1.0,0.0,0.0,0.0,1.0,0.0,0.0,0.0,1.0,0.034642234724,-0.263993082196,9.71463239193,0.1,0.0,0.0,0.0,0.1,0.0,0.0,0.0,0.1
1405448445462422140,41,1405448445462422140,ardrone_base_link,-0.039518894228,0.00839304224986,-0.00508222707444,0.999170648492,1.0,0.0,0.0,0.0,1.0,0.0,0.0,0.0,100000.0,-0.00363252405077,-0.00484336493537,0.00018534832634,1.0,0.0,0.0,0.0,1.0,0.0,0.0,0.0,1.0,0.0353283129632,-0.265034377202,9.73571056128,0.1,0.0,0.0,0.0,0.1,0.0,0.0,0.0,0.1
1405448445463680504,42,1405448445463680504,ardrone_base_link,-0.039518894228,0.00839304224986,-0.00508222707444,0.999170648492,1.0,0.0,0.0,0.0,1.0,0.0,0.0,0.0,100000.0,-0.00252963742241,-0.00484808022156,-0.000471145205665,1.0,0.0,0.0,0.0,1.0,0.0,0.0,0.0,1.0,0.0361220345832,-0.265710721537,9.75947862864,0.1,0.0,0.0,0.0,0.1,0.0,0.0,0.0,0.1
1405448445464916942,43,1405448445464916942,ardrone_base_link,-0.0395189674687,0.0083926973862,-0.00507350776841,0.999170692805,1.0,0.0,0.0,0.0,1.0,0.0,0.0,0.0,100000.0,0.000291528878734,-0.0048447092995,0.000236185645917,1.0,0.0,0.0,0.0,1.0,0.0,0.0,0.0,1.0,0.0358446776401,-0.2650448367,9.7532173872,0.1,0.0,0.0,0.0,0.1,0.0,0.0,0.0,0.1
1405448445466468838,44,1405448445466468838,ardrone_base_link,-0.0395189674687,0.0083926973862,-0.00507350776841,0.999170692805,1.0,0.0,0.0,0.0,1.0,0.0,0.0,0.0,100000.0,-0.00132223544642,-0.00484405457973,0.000346464687027,1.0,0.0,0.0,0.0,1.0,0.0,0.0,0.0,1.0,0.0351865028031,-0.28666341342,9.74948716164,0.1,0.0,0.0,0.0,0.1,0.0,0.0,0.0,0.1
1405448445470518288,45,1405448445470518288,ardrone_base_link,-0.0395190173967,0.00838397759048,-0.0050738534239,0.99917076228,1.0,0.0,0.0,0.0,1.0,0.0,0.0,0.0,100000.0,-0.00270793261006,-0.00484424782917,-0.000124702695757,1.0,0.0,0.0,0.0,1.0,0.0,0.0,0.0,1.0,0.0355705060065,-0.308668571711,9.77344390154,0.1,0.0,0.0,0.0,0.1,0.0,0.0,0.0,0.1
1405448445471464895,46,1405448445471464895,ardrone_base_link,-0.039518944232,0.00838432245457,-0.00508257273053,0.999170717965,1.0,0.0,0.0,0.0,1.0,0.0,0.0,0.0,100000.0,-0.00305721769109,-0.00484236795455,-6.27847839496e-05,1.0,0.0,0.0,0.0,1.0,0.0,0.0,0.0,1.0,0.0365339822602,-0.303363726288,9.79608986378,0.1,0.0,0.0,0.0,0.1,0.0,0.0,0.0,0.1
1405448445472960287,47,1405448445472960287,ardrone_base_link,-0.0395188710644,0.00838466731803,-0.00509129203678,0.999170673573,1.0,0.0,0.0,0.0,1.0,0.0,0.0,0.0,100000.0,-0.00441692769527,-0.00484229438007,7.9743549577e-05,1.0,0.0,0.0,0.0,1.0,0.0,0.0,0.0,1.0,0.0364216430578,-0.30027266182,9.79063471556,0.1,0.0,0.0,0.0,0.1,0.0,0.0,0.0,0.1
1405448445474178395,48,1405448445474178395,ardrone_base_link,-0.0395189211385,0.00837594804226,-0.00509163767249,0.999170742963,1.0,0.0,0.0,0.0,1.0,0.0,0.0,0.0,100000.0,-0.00212232512422,-0.00484219193459,8.52770608617e-06,1.0,0.0,0.0,0.0,1.0,0.0,0.0,0.0,1.0,0.0362899866421,-0.301865225285,9.78733090162,0.1,0.0,0.0,0.0,0.1,0.0,0.0,0.0,0.1
1405448445475429316,49,1405448445475429316,ardrone_base_link,-0.03951899423,0.00837560317837,-0.00508291836564,0.999170787357,1.0,0.0,0.0,0.0,1.0,0.0,0.0,0.0,100000.0,0.00046618282795,-0.00484096957371,6.02539112151e-05,1.0,0.0,0.0,0.0,1.0,0.0,0.0,0.0,1.0,0.0363867461216,-0.301514165848,9.78915629387,0.1,0.0,0.0,0.0,0.1,0.0,0.0,0.0,0.1
1405448445476733384,50,1405448445476733384,ardrone_base_link,-0.03951899423,0.00837560317837,-0.00508291836564,0.999170787357,1.0,0.0,0.0,0.0,1.0,0.0,0.0,0.0,100000.0,-0.00141793466173,-0.00484041403979,4.79072477901e-05,1.0,0.0,0.0,0.0,1.0,0.0,0.0,0.0,1.0,0.0363827507943,-0.301529736444,9.78869425058,0.1,0.0,0.0,0.0,0.1,0.0,0.0,0.0,0.1
1405448445478011878,51,1405448445478011878,ardrone_base_link,-0.0395190442251,0.00836688390152,-0.00508326400037,0.999170856673,1.0,0.0,0.0,0.0,1.0,0.0,0.0,0.0,100000.0,-8.25384631753e-05,-0.00483992788941,-5.96073368797e-06,1.0,0.0,0.0,0.0,1.0,0.0,0.0,0.0,1.0,0.0363964184187,-0.301380127296,9.78876142502,0.1,0.0,0.0,0.0,0.1,0.0,0.0,0.0,0.1
1405448445479336029,52,1405448445479336029,ardrone_base_link,-0.0395190442251,0.00836688390152,-0.00508326400037,0.999170856673,1.0,0.0,0.0,0.0,1.0,0.0,0.0,0.0,100000.0,-0.00147553975694,-0.00483913626522,2.96915968647e-05,1.0,0.0,0.0,0.0,1.0,0.0,0.0,0.0,1.0,0.0363893199246,-0.301764956489,9.78861539364,0.1,0.0,0.0,0.0,0.1,0.0,0.0,0.0,0.1
1405448445480653252,53,1405448445480653252,ardrone_base_link,-0.03951899423,0.00837560317837,-0.00508291836564,0.999170787357,1.0,0.0,0.0,0.0,1.0,0.0,0.0,0.0,100000.0,-0.00166150275618,-0.00230831233785,4.32385786553e-05,1.0,0.0,0.0,0.0,1.0,0.0,0.0,0.0,1.0,0.0369286617264,-0.279682054743,9.78978773355,0.1,0.0,0.0,0.0,0.1,0.0,0.0,0.0,0.1
1405448445481927521,54,1405448445481927521,ardrone_base_link,-0.0395190673186,0.00837525831384,-0.00507419905841,0.999170831675,1.0,0.0,0.0,0.0,1.0,0.0,0.0,0.0,100000.0,-0.00069341971539,-0.00318181933835,2.53945181612e-05,1.0,0.0,0.0,0.0,1.0,0.0,0.0,0.0,1.0,0.0360739218071,-0.280010935664,9.76632866859,0.1,0.0,0.0,0.0,0.1,0.0,0.0,0.0,0.1
1405448445483271629,55,1405448445483271629,ardrone_base_link,-0.0395102754412,0.00837555882439,-0.00508299145116,0.999171132162,1.0,0.0,0.0,0.0,1.0,0.0,0.0,0.0,100000.0,-0.00342400348745,-0.00206888536923,3.10927716782e-05,1.0,0.0,0.0,0.0,1.0,0.0,0.0,0.0,1.0,0.0346698665991,-0.307342241704,9.74213010073,0.1,0.0,0.0,0.0,0.1,0.0,0.0,0.0,0.1
1405448445484245540,56,1405448445484245540,ardrone_base_link,-0.0395102254438,0.00838427810361,-0.00508264589213,0.99917106277,1.0,0.0,0.0,0.0,1.0,0.0,0.0,0.0,100000.0,-0.00283096171916,-0.00351298600435,2.9906805139e-05,1.0,0.0,0.0,0.0,1.0,0.0,0.0,0.0,1.0,0.0126382332761,-0.305233420804,9.74858527184,0.1,0.0,0.0,0.0,0.1,0.0,0.0,0.0,0.1
1405448445485633833,57,1405448445485633833,ardrone_base_link,-0.0395101522765,0.00838462289098,-0.00509136520139,0.999171018378,1.0,0.0,0.0,0.0,1.0,0.0,0.0,0.0,100000.0,-0.00379098439589,-0.00615310808644,2.56679850281e-05,1.0,0.0,0.0,0.0,1.0,0.0,0.0,0.0,1.0,0.0137287271675,-0.300641810894,9.75177459717,0.1,0.0,0.0,0.0,0.1,0.0,0.0,0.0,0.1
1405448445486964648,58,1405448445486964648,ardrone_base_link,-0.0395101292558,0.00837624839936,-0.00510043007049,0.999171043296,1.0,0.0,0.0,0.0,1.0,0.0,0.0,0.0,100000.0,-0.00499176047742,-0.00455019623041,3.16227669828e-05,1.0,0.0,0.0,0.0,1.0,0.0,0.0,0.0,1.0,0.041570191551,-0.30179916434,9.74938435555,0.1,0.0,0.0,0.0,0.1,0.0,0.0,0.0,0.1
1405448445488231481,59,1405448445488231481,ardrone_base_link,-0.0395100561543,0.00837659320644,-0.00510914989929,0.999170998747,1.0,0.0,0.0,0.0,1.0,0.0,0.0,0.0,100000.0,-0.00141679903027,-0.00574961770326,3.11917174258e-05,1.0,0.0,0.0,0.0,1.0,0.0,0.0,0.0,1.0,0.0159877846949,-0.323472575843,9.74937734604,0.1,0.0,0.0,0.0,0.1,0.0,0.0,0.0,0.1
1405448445489449828,60,1405448445489449828,ardrone_base_link,-0.0395099830541,0.00837693799234,-0.00511786920798,0.999170954123,1.0,0.0,0.0,0.0,1.0,0.0,0.0,0.0,100000.0,-0.00660739606246,-0.00445562880486,2.82503460767e-05,1.0,0.0,0.0,0.0,1.0,0.0,0.0,0.0,1.0,0.0117745352443,-0.322514208406,9.74937968254,0.1,0.0,0.0,0.0,0.1,0.0,0.0,0.0,0.1
1405448445490767211,61,1405448445490767211,ardrone_base_link,-0.0395099099509,0.00837728277759,-0.00512658851628,0.999170909424,1.0,0.0,0.0,0.0,1.0,0.0,0.0,0.0,100000.0,-0.00312837073579,-0.00425338884816,2.97479709843e-05,1.0,0.0,0.0,0.0,1.0,0.0,0.0,0.0,1.0,0.0406589922495,-0.292952984944,9.72676000595,0.1,0.0,0.0,0.0,0.1,0.0,0.0,0.0,0.1
1405448445523010909,62,1405448445523010909,ardrone_base_link,-0.0395099099509,0.00837728277759,-0.00512658851628,0.999170909424,1.0,0.0,0.0,0.0,1.0,0.0,0.0,0.0,100000.0,-0.00291492184624,-0.00511415163055,2.97528386e-05,1.0,0.0,0.0,0.0,1.0,0.0,0.0,0.0,1.0,0.0362329522613,-0.317910459638,9.72604970932,0.1,0.0,0.0,0.0,0.1,0.0,0.0,0.0,0.1
1405448445524382676,63,1405448445524382676,ardrone_base_link,-0.0395098368446,0.00837762756221,-0.00513530782419,0.999170864649,1.0,0.0,0.0,0.0,1.0,0.0,0.0,0.0,100000.0,-0.00323920836672,-0.00246995943598,2.92887489195e-05,1.0,0.0,0.0,0.0,1.0,0.0,0.0,0.0,1.0,0.0323926258832,-0.322576855868,9.75463856459,0.1,0.0,0.0,0.0,0.1,0.0,0.0,0.0,0.1
1405448445525853231,64,1405448445525853231,ardrone_base_link,-0.0395099099509,0.00837728277759,-0.00512658851628,0.999170909424,1.0,0.0,0.0,0.0,1.0,0.0,0.0,0.0,100000.0,0.00149828405119,-0.00308285001665,2.9977709346e-05,1.0,0.0,0.0,0.0,1.0,0.0,0.0,0.0,1.0,0.0344064373989,-0.292957329378,9.75325301886,0.1,0.0,0.0,0.0,0.1,0.0,0.0,0.0,0.1
1405448445526934423,65,1405448445526934423,ardrone_base_link,-0.039509859573,0.00838600205462,-0.00512624295423,0.999170840047,1.0,0.0,0.0,0.0,1.0,0.0,0.0,0.0,100000.0,-0.00153848365881,-0.00210019783117,-0.00135449308436,1.0,0.0,0.0,0.0,1.0,0.0,0.0,0.0,1.0,0.0329787981231,-0.295872371271,9.72499185801,0.1,0.0,0.0,0.0,0.1,0.0,0.0,0.0,0.1
1405448445528350739,66,1405448445528350739,ardrone_base_link,-0.0395185783593,0.00838604678602,-0.00512616977759,0.999170495245,1.0,0.0,0.0,0.0,1.0,0.0,0.0,0.0,100000.0,-0.00078403390944,-0.00344988028519,-0.000876609934494,1.0,0.0,0.0,0.0,1.0,0.0,0.0,0.0,1.0,0.0327516029589,-0.30032059662,9.70401649475,0.1,0.0,0.0,0.0,0.1,0.0,0.0,0.0,0.1
1405448445531630323,67,1405448445531630323,ardrone_base_link,-0.0395185783593,0.00838604678602,-0.00512616977759,0.999170495245,1.0,0.0,0.0,0.0,1.0,0.0,0.0,0.0,100000.0,-0.00110056181438,-0.00611273478717,-0.00148469756823,1.0,0.0,0.0,0.0,1.0,0.0,0.0,0.0,1.0,0.0332185017876,-0.299812900275,9.70935189724,0.1,0.0,0.0,0.0,0.1,0.0,0.0,0.0,0.1
1405448445532449131,68,1405448445532449131,ardrone_base_link,-0.0395186287378,0.008377327512,-0.00512651541572,0.999170564622,1.0,0.0,0.0,0.0,1.0,0.0,0.0,0.0,100000.0,-0.00151261361316,-0.00460826745257,-0.000694305635989,1.0,0.0,0.0,0.0,1.0,0.0,0.0,0.0,1.0,0.035053513851,-0.301971098036,9.73602423668,0.1,0.0,0.0,0.0,0.1,0.0,0.0,0.0,0.1
1405448445534035421,69,1405448445534035421,ardrone_base_link,-0.0395185556311,0.0083776723727,-0.00513523472063,0.999170519847,1.0,0.0,0.0,0.0,1.0,0.0,0.0,0.0,100000.0,-0.00343283847906,-0.00574268400669,0.000750322593376,1.0,0.0,0.0,0.0,1.0,0.0,0.0,0.0,1.0,0.0357207106892,-0.325598719716,9.75588742495,0.1,0.0,0.0,0.0,0.1,0.0,0.0,0.0,0.1
1405448445668079252,70,1405448445668079252,ardrone_base_link,-0.0395184825215,0.00837801723277,-0.00514395402514,0.999170474996,1.0,0.0,0.0,0.0,1.0,0.0,0.0,0.0,100000.0,-0.00243656360544,-0.00442415522411,-0.000126109924167,1.0,0.0,0.0,0.0,1.0,0.0,0.0,0.0,1.0,0.0354764070362,-0.325675751269,9.75072200298,0.1,0.0,0.0,0.0,0.1,0.0,0.0,0.0,0.1
1405448445669335005,71,1405448445669335005,ardrone_base_link,-0.0395096906188,0.00837831715008,-0.00515274695856,0.999170774867,1.0,0.0,0.0,0.0,1.0,0.0,0.0,0.0,100000.0,-0.00398427713662,-0.00425450736657,0.00191458198242,1.0,0.0,0.0,0.0,1.0,0.0,0.0,0.0,1.0,0.0356966679916,-0.297633838281,9.74891763926,0.1,0.0,0.0,0.0,0.1,0.0,0.0,0.0,0.1
1405448445670823298,72,1405448445670823298,ardrone_base_link,-0.039509741222,0.00836959787373,-0.00515309252204,0.999170844159,1.0,0.0,0.0,0.0,1.0,0.0,0.0,0.0,100000.0,-0.00239435816184,-0.00510482583195,0.000729006715119,1.0,0.0,0.0,0.0,1.0,0.0,0.0,0.0,1.0,0.0345618102234,-0.32219684571,9.74951111078,0.1,0.0,0.0,0.0,0.1,0.0,0.0,0.0,0.1
1405448445672044930,73,1405448445672044930,ardrone_base_link,-0.0395096681828,0.00836994265688,-0.00516181182938,0.999170799152,1.0,0.0,0.0,0.0,1.0,0.0,0.0,0.0,100000.0,-0.00224729301408,-0.00499309739098,0.00122717011254,1.0,0.0,0.0,0.0,1.0,0.0,0.0,0.0,1.0,0.0333455445245,-0.34778194502,9.74775055647,0.1,0.0,0.0,0.0,0.1,0.0,0.0,0.0,0.1
1405448445675700639,74,1405448445675700639,ardrone_base_link,-0.0395008763521,0.00837024232089,-0.00517060417546,0.999171098793,1.0,0.0,0.0,0.0,1.0,0.0,0.0,0.0,100000.0,-0.00303567270748,-0.00473961420357,0.000907930603717,1.0,0.0,0.0,0.0,1.0,0.0,0.0,0.0,1.0,0.0337005992886,-0.316613481939,9.74926694632,0.1,0.0,0.0,0.0,0.1,0.0,0.0,0.0,0.1
1405448445676661046,75,1405448445676661046,ardrone_base_link,-0.0395095951406,0.00837028743938,-0.00517053113633,0.999170754069,1.0,0.0,0.0,0.0,1.0,0.0,0.0,0.0,100000.0,-0.00286917155609,-0.00485828425735,-0.000598726095632,1.0,0.0,0.0,0.0,1.0,0.0,0.0,0.0,1.0,0.0349743077997,-0.292053358629,9.77366645336,0.1,0.0,0.0,0.0,0.1,0.0,0.0,0.0,0.1
1405448445677866446,76,1405448445677866446,ardrone_base_link,-0.0395008541351,0.008361867748,-0.00517966897383,0.999171122841,1.0,0.0,0.0,0.0,1.0,0.0,0.0,0.0,100000.0,-0.00529720354825,-0.00476406607777,0.00013526645489,1.0,0.0,0.0,0.0,1.0,0.0,0.0,0.0,1.0,0.05737054497,-0.298192371801,9.77240591049,0.1,0.0,0.0,0.0,0.1,0.0,0.0,0.0,0.1
1405448445679332391,77,1405448445679332391,ardrone_base_link,-0.0395095508489,0.00835353847197,-0.00518866139937,0.999170802005,1.0,0.0,0.0,0.0,1.0,0.0,0.0,0.0,100000.0,-0.0045522772707,-0.0047915535979,-0.000450089253718,1.0,0.0,0.0,0.0,1.0,0.0,0.0,0.0,1.0,0.0559216307476,-0.300085832924,9.74361845255,0.1,0.0,0.0,0.0,0.1,0.0,0.0,0.0,0.1
1405448445680427428,78,1405448445680427428,ardrone_base_link,-0.0395007591613,0.00835383790067,-0.00519745360232,0.999171101411,1.0,0.0,0.0,0.0,1.0,0.0,0.0,0.0,100000.0,-0.00550479069352,-0.00488679483533,0.000205558622838,1.0,0.0,0.0,0.0,1.0,0.0,0.0,0.0,1.0,0.051265506912,-0.298664071411,9.74654433727,0.1,0.0,0.0,0.0,0.1,0.0,0.0,0.0,0.1
1405448445681669221,79,1405448445681669221,ardrone_base_link,-0.0395007373128,0.00834546280711,-0.00520651842233,0.999171125067,1.0,0.0,0.0,0.0,1.0,0.0,0.0,0.0,100000.0,-0.00406782887876,-0.00482112821192,0.000328206340782,1.0,0.0,0.0,0.0,1.0,0.0,0.0,0.0,1.0,0.0538645505905,-0.299133306742,9.75118579865,0.1,0.0,0.0,0.0,0.1,0.0,0.0,0.0,0.1
1405448445684121414,80,1405448445684121414,ardrone_base_link,-0.0395007373128,0.00834546280711,-0.00520651842233,0.999171125067,1.0,0.0,0.0,0.0,1.0,0.0,0.0,0.0,100000.0,-0.00152116874233,-0.00479652546346,-8.91398885869e-05,1.0,0.0,0.0,0.0,1.0,0.0,0.0,0.0,1.0,0.0317860389128,-0.300203661993,9.77301340103,0.1,0.0,0.0,0.0,0.1,0.0,0.0,0.0,0.1
1405448445832346056,81,1405448445832346056,ardrone_base_link,-0.0395007373128,0.00834546280711,-0.00520651842233,0.999171125067,1.0,0.0,0.0,0.0,1.0,0.0,0.0,0.0,100000.0,-0.00053521594964,-0.00482720695436,-6.28596098977e-05,1.0,0.0,0.0,0.0,1.0,0.0,0.0,0.0,1.0,0.0326102377381,-0.300350587815,9.77300171852,0.1,0.0,0.0,0.0,0.1,0.0,0.0,0.0,0.1
1405448445833584547,82,1405448445833584547,ardrone_base_link,-0.0395008101383,0.0083451181019,-0.00519779911214,0.999171170464,1.0,0.0,0.0,0.0,1.0,0.0,0.0,0.0,100000.0,-0.000171083956957,-0.00228642113507,6.61339145154e-05,1.0,0.0,0.0,0.0,1.0,0.0,0.0,0.0,1.0,0.0371998785064,-0.277025360614,9.74500867128,0.1,0.0,0.0,0.0,0.1,0.0,0.0,0.0,0.1
1405448445834738631,83,1405448445834738631,ardrone_base_link,-0.0395008829608,0.00834477339605,-0.00518907980156,0.999171215785,1.0,0.0,0.0,0.0,1.0,0.0,0.0,0.0,100000.0,-0.000359206460416,-0.00316258636303,1.27494204207e-05,1.0,0.0,0.0,0.0,1.0,0.0,0.0,0.0,1.0,0.0350616847631,-0.278258540854,9.74811154604,0.1,0.0,0.0,0.0,0.1,0.0,0.0,0.0,0.1
1405448445836046521,84,1405448445836046521,ardrone_base_link,-0.0395008320599,0.00835349319527,-0.00518873429234,0.999171146728,1.0,0.0,0.0,0.0,1.0,0.0,0.0,0.0,100000.0,-0.00202661077492,-0.00205689994618,5.8783320128e-05,1.0,0.0,0.0,0.0,1.0,0.0,0.0,0.0,1.0,0.0354511572979,-0.30683580488,9.75131021738,0.1,0.0,0.0,0.0,0.1,0.0,0.0,0.0,0.1
1405448445837269828,85,1405448445837269828,ardrone_base_link,-0.0395008320599,0.00835349319527,-0.00518873429234,0.999171146728,1.0,0.0,0.0,0.0,1.0,0.0,0.0,0.0,100000.0,-0.00129566341639,-0.00349036953412,4.76236127724e-05,1.0,0.0,0.0,0.0,1.0,0.0,0.0,0.0,1.0,0.0351930719335,-0.305110571906,9.74935106039,0.1,0.0,0.0,0.0,0.1,0.0,0.0,0.0,0.1
1405448445838516700,86,1405448445838516700,ardrone_base_link,-0.0395008320599,0.00835349319527,-0.00518873429234,0.999171146728,1.0,0.0,0.0,0.0,1.0,0.0,0.0,0.0,100000.0,-0.000662081874907,-0.00613161735237,-2.01114744414e-06,1.0,0.0,0.0,0.0,1.0,0.0,0.0,0.0,1.0,0.0359127944335,-0.301509365067,9.7501501441,0.1,0.0,0.0,0.0,0.1,0.0,0.0,0.0,0.1
1405448445839852407,87,1405448445839852407,ardrone_base_link,-0.0395008829608,0.00834477339605,-0.00518907980156,0.999171215785,1.0,0.0,0.0,0.0,1.0,0.0,0.0,0.0,100000.0,-0.000982193509117,-0.0045339083299,2.76900100289e-05,1.0,0.0,0.0,0.0,1.0,0.0,0.0,0.0,1.0,0.0369055613875,-0.304605066031,9.7731500864,0.1,0.0,0.0,0.0,0.1,0.0,0.0,0.0,0.1
1405448445841501122,88,1405448445841501122,ardrone_base_link,-0.0395008829608,0.00834477339605,-0.00518907980156,0.999171215785,1.0,0.0,0.0,0.0,1.0,0.0,0.0,0.0,100000.0,-0.0010250734631,-0.00573087064549,4.16689290432e-05,1.0,0.0,0.0,0.0,1.0,0.0,0.0,0.0,1.0,0.0374744973611,-0.281540523097,9.77401576042,0.1,0.0,0.0,0.0,0.1,0.0,0.0,0.0,0.1
1405448445842572730,89,1405448445842572730,ardrone_base_link,-0.0395008829608,0.00834477339605,-0.00518907980156,0.999171215785,1.0,0.0,0.0,0.0,1.0,0.0,0.0,0.0,100000.0,-0.00360817229375,-0.00443713646382,2.67640716629e-05,1.0,0.0,0.0,0.0,1.0,0.0,0.0,0.0,1.0,0.0367632355541,-0.258611880615,9.74621196985,0.1,0.0,0.0,0.0,0.1,0.0,0.0,0.0,0.1
1405448445851748724,90,1405448445851748724,ardrone_base_link,-0.0395008829608,0.00834477339605,-0.00518907980156,0.999171215785,1.0,0.0,0.0,0.0,1.0,0.0,0.0,0.0,100000.0,-0.00281401257962,-0.00423562061042,3.09657552862e-05,1.0,0.0,0.0,0.0,1.0,0.0,0.0,0.0,1.0,0.0356037213001,-0.285841128975,9.74767169952,0.1,0.0,0.0,0.0,0.1,0.0,0.0,0.0,0.1
1405448445884675619,91,1405448445884675619,ardrone_base_link,-0.0395008101383,0.0083451181019,-0.00519779911214,0.999171170464,1.0,0.0,0.0,0.0,1.0,0.0,0.0,0.0,100000.0,-0.00634942296892,-0.00256461952813,2.97749575111e-05,1.0,0.0,0.0,0.0,1.0,0.0,0.0,0.0,1.0,0.0119823652785,-0.310564570129,9.75176583529,0.1,0.0,0.0,0.0,0.1,0.0,0.0,0.0,0.1
1405448445887700327,92,1405448445887700327,ardrone_base_link,-0.0395006862597,0.00835418260544,-0.00520617291191,0.999171056017,1.0,0.0,0.0,0.0,1.0,0.0,0.0,0.0,100000.0,-0.0039829025045,-0.00332499598153,2.59996013483e-05,1.0,0.0,0.0,0.0,1.0,0.0,0.0,0.0,1.0,-0.0104765376076,-0.302766111121,9.75046323538,0.1,0.0,0.0,0.0,0.1,0.0,0.0,0.0,0.1
1405448445889046233,93,1405448445889046233,ardrone_base_link,-0.0395006352066,0.00836290188341,-0.00520582742168,0.999170986894,1.0,0.0,0.0,0.0,1.0,0.0,0.0,0.0,100000.0,-0.00252133933827,-0.00195170985535,3.1266012229e-05,1.0,0.0,0.0,0.0,1.0,0.0,0.0,0.0,1.0,-0.00504427296109,-0.299201868474,9.7509947896,0.1,0.0,0.0,0.0,0.1,0.0,0.0,0.0,0.1
1405448445890442072,94,1405448445890442072,ardrone_base_link,-0.0395005110937,0.00837196586399,-0.00521420123904,0.999170872232,1.0,0.0,0.0,0.0,1.0,0.0,0.0,0.0,100000.0,-0.00266714184545,-0.00352526619099,3.11407202389e-05,1.0,0.0,0.0,0.0,1.0,0.0,0.0,0.0,1.0,-0.00200889179832,-0.299793149531,9.75058531761,0.1,0.0,0.0,0.0,0.1,0.0,0.0,0.0,0.1
1405448445891796495,95,1405448445891796495,ardrone_base_link,-0.0395005841505,0.00837162116075,-0.00520548193106,0.999170917696,1.0,0.0,0.0,0.0,1.0,0.0,0.0,0.0,100000.0,0.00122464029118,-0.00607071677223,2.84928755718e-05,1.0,0.0,0.0,0.0,1.0,0.0,0.0,0.0,1.0,-0.00309237703914,-0.29892988503,9.75094455481,0.1,0.0,0.0,0.0,0.1,0.0,0.0,0.0,0.1
1405448445893048621,96,1405448445893048621,ardrone_base_link,-0.0394918143021,0.008380295017,-0.00520520956689,0.999171193065,1.0,0.0,0.0,0.0,1.0,0.0,0.0,0.0,100000.0,-0.00170642882586,-0.00449011474848,2.96678263112e-05,1.0,0.0,0.0,0.0,1.0,0.0,0.0,0.0,1.0,-0.00207121297135,-0.298764157668,9.75077691078,0.1,0.0,0.0,0.0,0.1,0.0,0.0,0.0,0.1
1405448445901839134,97,1405448445901839134,ardrone_base_link,-0.0394918143021,0.008380295017,-0.00520520956689,0.999171193065,1.0,0.0,0.0,0.0,1.0,0.0,0.0,0.0,100000.0,-0.00068332767114,-0.00578768365085,2.97158912872e-05,1.0,0.0,0.0,0.0,1.0,0.0,0.0,0.0,1.0,-0.00171869279293,-0.299160377309,9.75076990128,0.1,0.0,0.0,0.0,0.1,0.0,0.0,0.0,0.1
1405448445903011207,98,1405448445903011207,ardrone_base_link,-0.0394918143021,0.008380295017,-0.00520520956689,0.999171193065,1.0,0.0,0.0,0.0,1.0,0.0,0.0,0.0,100000.0,-0.00112453685142,-0.00442848494276,2.93325065286e-05,1.0,0.0,0.0,0.0,1.0,0.0,0.0,0.0,1.0,-0.00147818538535,-0.30039514564,9.75083415508,0.1,0.0,0.0,0.0,0.1,0.0,0.0,0.0,0.1
1405448446060825158,99,1405448446060825158,ardrone_base_link,-0.0394916834689,0.00841482802363,-0.00519510857424,0.999170960573,1.0,0.0,0.0,0.0,1.0,0.0,0.0,0.0,100000.0,-0.00102136051282,0.00215604738332,2.95960726362e-05,1.0,0.0,0.0,0.0,1.0,0.0,0.0,0.0,1.0,0.0281814665068,-0.29986406602,9.70955049992,0.1,0.0,0.0,0.0,0.1,0.0,0.0,0.0,0.1
1405448446063040900,100,1405448446063040900,ardrone_base_link,-0.0394916324715,0.00842354730059,-0.00519476315793,0.999170890915,1.0,0.0,0.0,0.0,1.0,0.0,0.0,0.0,100000.0,-0.00105705182068,0.000974645838141,2.96386497212e-05,1.0,0.0,0.0,0.0,1.0,0.0,0.0,0.0,1.0,0.031123232143,-0.299561415985,9.71250500679,0.1,0.0,0.0,0.0,0.1,0.0,0.0,0.0,0.1
1405448446064106166,101,1405448446064106166,ardrone_base_link,-0.0394916550541,0.0084319219516,-0.00518569843369,0.999170866471,1.0,0.0,0.0,0.0,1.0,0.0,0.0,0.0,100000.0,-0.0010214173235,-0.00203210767359,2.96235375572e-05,1.0,0.0,0.0,0.0,1.0,0.0,0.0,0.0,1.0,0.0590662248433,-0.298979444429,9.71022049189,0.1,0.0,0.0,0.0,0.1,0.0,0.0,0.0,0.1
1405448446065415340,102,1405448446065415340,ardrone_base_link,-0.0394829871883,0.00842315742098,-0.00518611735065,0.999171280777,1.0,0.0,0.0,0.0,1.0,0.0,0.0,0.0,100000.0,-0.00102371815592,-0.00197353470139,0.00141377863474,1.0,0.0,0.0,0.0,1.0,0.0,0.0,0.0,1.0,0.0805237472057,-0.276184803993,9.71124680042,0.1,0.0,0.0,0.0,0.1,0.0,0.0,0.0,0.1
1405448446067591123,103,1405448446067591123,ardrone_base_link,-0.0394831115409,0.00841409356926,-0.00517774285839,0.999171395663,1.0,0.0,0.0,0.0,1.0,0.0,0.0,0.0,100000.0,-0.0010318660643,-0.00508904131129,0.000935613410547,1.0,0.0,0.0,0.0,1.0,0.0,0.0,0.0,1.0,0.0770317079499,-0.254319178686,9.71228595972,0.1,0.0,0.0,0.0,0.1,0.0,0.0,0.0,0.1
1405448446068759967,104,1405448446068759967,ardrone_base_link,-0.0394831849653,0.00841374901786,-0.00516902354584,0.999171440809,1.0,0.0,0.0,0.0,1.0,0.0,0.0,0.0,100000.0,-0.0010224787984,-0.0022896961309,0.00154401781037,1.0,0.0,0.0,0.0,1.0,0.0,0.0,0.0,1.0,0.0740518874489,-0.260066608712,9.71227602959,0.1,0.0,0.0,0.0,0.1,0.0,0.0,0.0,0.1
1405448446070025097,105,1405448446070025097,ardrone_base_link,-0.0394745395919,0.00841335943657,-0.00516037764827,0.999171830372,1.0,0.0,0.0,0.0,1.0,0.0,0.0,0.0,100000.0,-0.00102752400562,-0.00342840771191,0.000753581756726,1.0,0.0,0.0,0.0,1.0,0.0,0.0,0.0,1.0,0.0762449502014,-0.263737052679,9.73536943197,0.1,0.0,0.0,0.0,0.1,0.0,0.0,0.0,0.1
1405448446072055012,106,1405448446072055012,ardrone_base_link,-0.0394832357309,0.00840502973591,-0.00516936888385,0.999171510401,1.0,0.0,0.0,0.0,1.0,0.0,0.0,0.0,100000.0,-0.00358506431803,-0.00543663278222,-0.000691122142598,1.0,0.0,0.0,0.0,1.0,0.0,0.0,0.0,1.0,0.074899846036,-0.285438922048,9.75731853247,0.1,0.0,0.0,0.0,0.1,0.0,0.0,0.0,0.1
1405448446073289364,107,1405448446073289364,ardrone_base_link,-0.0394745676977,0.00839626534195,-0.00516978748767,0.999171924411,1.0,0.0,0.0,0.0,1.0,0.0,0.0,0.0,100000.0,-0.00269644381478,-0.0043861255981,0.000185391749255,1.0,0.0,0.0,0.0,1.0,0.0,0.0,0.0,1.0,0.0727528424934,-0.307792748511,9.75053800344,0.1,0.0,0.0,0.0,0.1,0.0,0.0,0.0,0.1
1405448446074627898,108,1405448446074627898,ardrone_base_link,-0.0394832640598,0.0083879352031,-0.00517877889363,0.999171604206,1.0,0.0,0.0,0.0,1.0,0.0,0.0,0.0,100000.0,-0.00382158765569,-0.00354048027657,-0.000471186765935,1.0,0.0,0.0,0.0,1.0,0.0,0.0,0.0,1.0,0.0703616242856,-0.301376622543,9.72434406281,0.1,0.0,0.0,0.0,0.1,0.0,0.0,0.0,0.1
1405448446075804020,109,1405448446075804020,ardrone_base_link,-0.0394745452638,0.00838789001264,-0.00517885208675,0.9991719487,1.0,0.0,0.0,0.0,1.0,0.0,0.0,0.0,100000.0,-0.00236303918064,-0.00287765427493,0.000236196705373,1.0,0.0,0.0,0.0,1.0,0.0,0.0,0.0,1.0,0.0685434103943,-0.297838081419,9.70326355696,0.1,0.0,0.0,0.0,0.1,0.0,0.0,0.0,0.1
1405448446077284518,110,1405448446077284518,ardrone_base_link,-0.0394745452638,0.00838789001264,-0.00517885208675,0.9991719487,1.0,0.0,0.0,0.0,1.0,0.0,0.0,0.0,100000.0,-0.00224955752492,-0.00133946642745,0.000346491346136,1.0,0.0,0.0,0.0,1.0,0.0,0.0,0.0,1.0,0.0687955792062,-0.299699488655,9.73195288181,0.1,0.0,0.0,0.0,0.1,0.0,0.0,0.0,0.1
1405448446078411894,111,1405448446078411894,ardrone_base_link,-0.0394745452638,0.00838789001264,-0.00517885208675,0.9991719487,1.0,0.0,0.0,0.0,1.0,0.0,0.0,0.0,100000.0,-0.000429677544162,-0.00370233994909,-0.000124724203488,1.0,0.0,0.0,0.0,1.0,0.0,0.0,0.0,1.0,0.0695864988491,-0.299605773017,9.75795289278,0.1,0.0,0.0,0.0,0.1,0.0,0.0,0.0,0.1
1405448446079790768,112,1405448446079790768,ardrone_base_link,-0.0394745960958,0.0083791707262,-0.0051791973481,0.999172018061,1.0,0.0,0.0,0.0,1.0,0.0,0.0,0.0,100000.0,-0.00122349103913,-0.00625663110986,-6.2786428316e-05,1.0,0.0,0.0,0.0,1.0,0.0,0.0,0.0,1.0,0.0481321754865,-0.300201051682,9.77425992489,0.1,0.0,0.0,0.0,0.1,0.0,0.0,0.0,0.1
1405448446080959927,113,1405448446080959927,ardrone_base_link,-0.0394745452638,0.00838789001264,-0.00517885208675,0.9991719487,1.0,0.0,0.0,0.0,1.0,0.0,0.0,0.0,100000.0,5.42011111975e-05,-0.00191919680219,7.97517932369e-05,1.0,0.0,0.0,0.0,1.0,0.0,0.0,0.0,1.0,0.0277425463777,-0.300890009478,9.79522360563,0.1,0.0,0.0,0.0,0.1,0.0,0.0,0.0,0.1
1405448446084324801,114,1405448446084324801,ardrone_base_link,-0.0394746692155,0.00837882624911,-0.00517047803012,0.999172063219,1.0,0.0,0.0,0.0,1.0,0.0,0.0,0.0,100000.0,0.00105846999213,-0.00413102842867,8.52233733895e-06,1.0,0.0,0.0,0.0,1.0,0.0,0.0,0.0,1.0,0.0340941607021,-0.301239736378,9.79085025787,0.1,0.0,0.0,0.0,0.1,0.0,0.0,0.0,0.1
1405448446085245857,115,1405448446085245857,ardrone_base_link,-0.0394746184596,0.00838754553599,-0.00517013276938,0.999171993855,1.0,0.0,0.0,0.0,1.0,0.0,0.0,0.0,100000.0,-0.00235748873092,-0.00157329486683,6.02559521212e-05,1.0,0.0,0.0,0.0,1.0,0.0,0.0,0.0,1.0,0.0367332375143,-0.301105551794,9.76407219172,0.1,0.0,0.0,0.0,0.1,0.0,0.0,0.0,0.1
1405448446086417700,116,1405448446086417700,ardrone_base_link,-0.0394746916524,0.00838720105871,-0.00516141345161,0.999172038935,1.0,0.0,0.0,0.0,1.0,0.0,0.0,0.0,100000.0,0.000359755242243,-0.00283612613566,4.79093723698e-05,1.0,0.0,0.0,0.0,1.0,0.0,0.0,0.0,1.0,0.0361885016784,-0.279412024468,9.76734329462,0.1,0.0,0.0,0.0,0.1,0.0,0.0,0.0,0.1
1405448446087752109,117,1405448446087752109,ardrone_base_link,-0.0394746916524,0.00838720105871,-0.00516141345161,0.999172038935,1.0,0.0,0.0,0.0,1.0,0.0,0.0,0.0,100000.0,-0.00242153438739,-0.00646033138037,0.00137820083182,1.0,0.0,0.0,0.0,1.0,0.0,0.0,0.0,1.0,0.0150121364975,-0.258553760126,9.77352100611,0.1,0.0,0.0,0.0,0.1,0.0,0.0,0.0,0.1
1405448446088916414,118,1405448446088916414,ardrone_base_link,-0.0394659180096,0.00839587580772,-0.00516114146824,0.99917231407,1.0,0.0,0.0,0.0,1.0,0.0,0.0,0.0,100000.0,-0.00118708261289,-0.00467816041782,0.000935680582188,1.0,0.0,0.0,0.0,1.0,0.0,0.0,0.0,1.0,-0.00858276217477,-0.286615022272,9.74735043049,0.1,0.0,0.0,0.0,0.1,0.0,0.0,0.0,0.1
1405448446091681382,119,1405448446091681382,ardrone_base_link,-0.0394659180096,0.00839587580772,-0.00516114146824,0.99917231407,1.0,0.0,0.0,0.0,1.0,0.0,0.0,0.0,100000.0,-0.00276453839615,-0.0055911000818,0.00155763793737,1.0,0.0,0.0,0.0,1.0,0.0,0.0,0.0,1.0,-0.00433433627477,-0.310839291662,9.72351869345,0.1,0.0,0.0,0.0,0.1,0.0,0.0,0.0,0.1
1405448446092838225,120,1405448446092838225,ardrone_base_link,-0.0394659180096,0.00839587580772,-0.00516114146824,0.99917231407,1.0,0.0,0.0,0.0,1.0,0.0,0.0,0.0,100000.0,-0.00284311687574,-0.00445737503469,0.000749357044697,1.0,0.0,0.0,0.0,1.0,0.0,0.0,0.0,1.0,-0.00154834604764,-0.303455653042,9.72953401804,0.1,0.0,0.0,0.0,0.1,0.0,0.0,0.0,0.1
1405448446094082441,121,1405448446094082441,ardrone_base_link,-0.0394657939799,0.00840493949705,-0.005169515603,0.999172199476,1.0,0.0,0.0,0.0,1.0,0.0,0.0,0.0,100000.0,-0.00401567202061,-0.00414505600929,-0.000689652515575,1.0,0.0,0.0,0.0,1.0,0.0,0.0,0.0,1.0,-0.00353930636193,-0.300444741547,9.73275196552,0.1,0.0,0.0,0.0,0.1,0.0,0.0,0.0,0.1
1405448446098703501,122,1405448446098703501,ardrone_base_link,-0.0394657939799,0.00840493949705,-0.005169515603,0.999172199476,1.0,0.0,0.0,0.0,1.0,0.0,0.0,0.0,100000.0,-0.0022269373294,-0.00503381201997,0.000185678130947,1.0,0.0,0.0,0.0,1.0,0.0,0.0,0.0,1.0,0.0178862679284,-0.300170458108,9.70715383291,0.1,0.0,0.0,0.0,0.1,0.0,0.0,0.0,0.1
1405448446100003483,123,1405448446100003483,ardrone_base_link,-0.0394658447412,0.00839622020844,-0.00516986078841,0.999172268993,1.0,0.0,0.0,0.0,1.0,0.0,0.0,0.0,100000.0,0.000188932754099,-0.00502881314605,-0.000475138862384,1.0,0.0,0.0,0.0,1.0,0.0,0.0,0.0,1.0,0.0393722686917,-0.298844566196,9.70739449263,0.1,0.0,0.0,0.0,0.1,0.0,0.0,0.0,0.1
1405448446101102253,124,1405448446101102253,ardrone_base_link,-0.0394658447412,0.00839622020844,-0.00516986078841,0.999172268993,1.0,0.0,0.0,0.0,1.0,0.0,0.0,0.0,100000.0,-0.00127805443481,-0.00468942336738,0.000238198175794,1.0,0.0,0.0,0.0,1.0,0.0,0.0,0.0,1.0,0.0123266228475,-0.29930087775,9.73688056469,0.1,0.0,0.0,0.0,0.1,0.0,0.0,0.0,0.1
1405448446102511820,125,1405448446102511820,ardrone_base_link,-0.0394571485229,0.00840455006323,-0.00516086962194,0.999172588892,1.0,0.0,0.0,0.0,1.0,0.0,0.0,0.0,100000.0,7.59493559599e-07,-0.0047941384837,0.000348062545527,1.0,0.0,0.0,0.0,1.0,0.0,0.0,0.0,1.0,-0.0119093758287,-0.299769821018,9.75801948309,0.1,0.0,0.0,0.0,0.1,0.0,0.0,0.0,0.1
1405448446103800815,126,1405448446103800815,ardrone_base_link,-0.0394571485229,0.00840455006323,-0.00516086962194,0.999172588892,1.0,0.0,0.0,0.0,1.0,0.0,0.0,0.0,100000.0,-0.00146833923645,-0.00473689194769,-0.000126094586449,1.0,0.0,0.0,0.0,1.0,0.0,0.0,0.0,1.0,0.0178691548761,-0.299642153084,9.75222203732,0.1,0.0,0.0,0.0,0.1,0.0,0.0,0.0,0.1
1405448446105045328,127,1405448446105045328,ardrone_base_link,-0.039457024415,0.00841361367841,-0.00516924383479,0.999172474224,1.0,0.0,0.0,0.0,1.0,0.0,0.0,0.0,100000.0,-0.00417902041227,-0.00221507251263,-6.26594919595e-05,1.0,0.0,0.0,0.0,1.0,0.0,0.0,0.0,1.0,0.0200860846322,-0.300114163011,9.74883878231,0.1,0.0,0.0,0.0,0.1,0.0,0.0,0.0,0.1
1405448446106253592,128,1405448446106253592,ardrone_base_link,-0.0394569001489,0.00842267729143,-0.00517761804564,0.99917235941,1.0,0.0,0.0,0.0,1.0,0.0,0.0,0.0,100000.0,-0.00237872055732,-0.00318928156048,7.98839973868e-05,1.0,0.0,0.0,0.0,1.0,0.0,0.0,0.0,1.0,-0.00775711159222,-0.301978454366,9.77487968206,0.1,0.0,0.0,0.0,0.1,0.0,0.0,0.0,0.1
1405448446107671550,129,1405448446107671550,ardrone_base_link,-0.0394568493031,0.00843139658069,-0.00517727293453,0.999172289668,1.0,0.0,0.0,0.0,1.0,0.0,0.0,0.0,100000.0,-0.00365900434554,-0.00201951083727,8.19039996713e-06,1.0,0.0,0.0,0.0,1.0,0.0,0.0,0.0,1.0,-0.00446693818667,-0.302585050464,9.77372428179,0.1,0.0,0.0,0.0,0.1,0.0,0.0,0.0,0.1
1405448446108928539,130,1405448446108928539,ardrone_base_link,-0.0394567984513,0.00844011638903,-0.00517692780245,0.999172219845,1.0,0.0,0.0,0.0,1.0,0.0,0.0,0.0,100000.0,-0.00244425865822,-0.0034261867404,6.06127905485e-05,1.0,0.0,0.0,0.0,1.0,0.0,0.0,0.0,1.0,-0.000499782842235,-0.301950087771,9.7450273633,0.1,0.0,0.0,0.0,0.1,0.0,0.0,0.0,0.1
1405448446110446067,131,1405448446110446067,ardrone_base_link,-0.0394567984513,0.00844011638903,-0.00517692780245,0.999172219845,1.0,0.0,0.0,0.0,1.0,0.0,0.0,0.0,100000.0,0.00035808631219,-0.00610019220039,4.79605296277e-05,1.0,0.0,0.0,0.0,1.0,0.0,0.0,0.0,1.0,-0.00178132884612,-0.301855404675,9.74774062634,0.1,0.0,0.0,0.0,0.1,0.0,0.0,0.0,0.1
1405448446111685389,132,1405448446111685389,ardrone_base_link,-0.0394567984513,0.00844011638903,-0.00517692780245,0.999172219845,1.0,0.0,0.0,0.0,1.0,0.0,0.0,0.0,100000.0,-0.00137434853241,-0.00449249474332,-6.20683567831e-06,1.0,0.0,0.0,0.0,1.0,0.0,0.0,0.0,1.0,-0.000335678688862,-0.279042747617,9.75354274511,0.1,0.0,0.0,0.0,0.1,0.0,0.0,0.0,0.1
1405448446113019291,133,1405448446113019291,ardrone_base_link,-0.0394569457513,0.00843942774483,-0.00515948916257,0.999172310046,1.0,0.0,0.0,0.0,1.0,0.0,0.0,0.0,100000.0,-0.000125834951177,-0.00569056952372,2.97725564451e-05,1.0,0.0,0.0,0.0,1.0,0.0,0.0,0.0,1.0,1.17039774523e-05,-0.256602853909,9.75245627165,0.1,0.0,0.0,0.0,0.1,0.0,0.0,0.0,0.1
1405448446232882503,134,1405448446232882503,ardrone_base_link,-0.0394395507061,0.0084815579885,-0.00512303381405,0.999172827662,1.0,0.0,0.0,0.0,1.0,0.0,0.0,0.0,100000.0,-0.00234992080368,-0.00223132013343,0.000235951913055,1.0,0.0,0.0,0.0,1.0,0.0,0.0,0.0,1.0,-0.00202820615959,-0.301254138723,9.75204504728,0.1,0.0,0.0,0.0,0.1,0.0,0.0,0.0,0.1
1405448446234868558,135,1405448446234868558,ardrone_base_link,-0.039439500297,0.00849027728193,-0.00512268885602,0.999172757368,1.0,0.0,0.0,0.0,1.0,0.0,0.0,0.0,100000.0,0.000326541485265,-0.00311226863414,0.000346572778653,1.0,0.0,0.0,0.0,1.0,0.0,0.0,0.0,1.0,-0.00126324017183,-0.301090437546,9.77377685308,0.1,0.0,0.0,0.0,0.1,0.0,0.0,0.0,0.1
1405448446238562284,136,1405448446238562284,ardrone_base_link,-0.0394393994698,0.00850771586684,-0.00512199893881,0.999172616552,1.0,0.0,0.0,0.0,1.0,0.0,0.0,0.0,100000.0,-0.00130222993903,0.000542024383321,-0.000124687358038,1.0,0.0,0.0,0.0,1.0,0.0,0.0,0.0,1.0,-0.00125384097046,-0.3008715,9.77370734215,0.1,0.0,0.0,0.0,0.1,0.0,0.0,0.0,0.1
1405448446289429917,137,1405448446289429917,ardrone_base_link,-0.0394394233663,0.00851609150854,-0.00511293463647,0.999172590682,1.0,0.0,0.0,0.0,1.0,0.0,0.0,0.0,100000.0,-8.94297845662e-05,-0.00177674624138,-6.28308262094e-05,1.0,0.0,0.0,0.0,1.0,0.0,0.0,0.0,1.0,-0.00212804056937,-0.299831774831,9.74496077299,0.1,0.0,0.0,0.0,0.1,0.0,0.0,0.0,0.1
1405448446605113716,138,1405448446605113716,ardrone_base_link,-0.0394307512206,0.00858373715426,-0.00505793288196,0.999172634048,1.0,0.0,0.0,0.0,1.0,0.0,0.0,0.0,100000.0,0.000504463445395,-0.00236658356152,-0.00148477777839,1.0,0.0,0.0,0.0,1.0,0.0,0.0,0.0,1.0,0.0354189071804,-0.277651324123,9.74969803095,0.1,0.0,0.0,0.0,0.1,0.0,0.0,0.0,0.1
1405448446606501058,139,1405448446606501058,ardrone_base_link,-0.0394307512206,0.00858373715426,-0.00505793288196,0.999172634048,1.0,0.0,0.0,0.0,1.0,0.0,0.0,0.0,100000.0,-0.00137500581332,-0.0064706155099,-0.00069434242323,1.0,0.0,0.0,0.0,1.0,0.0,0.0,0.0,1.0,0.0339311280753,-0.28437011838,9.75112621784,0.1,0.0,0.0,0.0,0.1,0.0,0.0,0.0,0.1
1405448446607430399,140,1405448446607430399,ardrone_base_link,-0.0394308759583,0.00857467376699,-0.00504955843986,0.999172749303,1.0,0.0,0.0,0.0,1.0,0.0,0.0,0.0,100000.0,-2.50721368502e-05,-0.00495347147807,0.000750366132706,1.0,0.0,0.0,0.0,1.0,0.0,0.0,0.0,1.0,0.0368955011945,-0.25987877585,9.77530083656,0.1,0.0,0.0,0.0,0.1,0.0,0.0,0.0,0.1
1405448446608760151,141,1405448446608760151,ardrone_base_link,-0.039430950784,0.00857432967142,-0.00504083911551,0.999172793331,1.0,0.0,0.0,0.0,1.0,0.0,0.0,0.0,100000.0,-0.0014294909779,-0.00531725771725,-0.000126150320284,1.0,0.0,0.0,0.0,1.0,0.0,0.0,0.0,1.0,0.0375521769281,-0.261156988516,9.77477921247,0.1,0.0,0.0,0.0,0.1,0.0,0.0,0.0,0.1
1405448446609986891,142,1405448446609986891,ardrone_base_link,-0.0394222319777,0.00857428568462,-0.00504091393512,0.999173137368,1.0,0.0,0.0,0.0,1.0,0.0,0.0,0.0,100000.0,-0.00160959060304,-0.00424838624895,0.000530427263584,1.0,0.0,0.0,0.0,1.0,0.0,0.0,0.0,1.0,0.0372055737302,-0.265403179452,9.74573590755,0.1,0.0,0.0,0.0,0.1,0.0,0.0,0.0,0.1
1405448446614846762,143,1405448446614846762,ardrone_base_link,-0.039422356477,0.00856522236716,-0.00503253941092,0.999173252406,1.0,0.0,0.0,0.0,1.0,0.0,0.0,0.0,100000.0,-0.000638562720269,-0.00422792043537,-0.000176954432391,1.0,0.0,0.0,0.0,1.0,0.0,0.0,0.0,1.0,0.0371505837888,-0.263865998387,9.74873597622,0.1,0.0,0.0,0.0,0.1,0.0,0.0,0.0,0.1
1405448446616073297,144,1405448446616073297,ardrone_base_link,-0.0394224312203,0.00856487834594,-0.00502382008218,0.999173296284,1.0,0.0,0.0,0.0,1.0,0.0,0.0,0.0,100000.0,-0.000819545937702,-0.00493452558294,-0.00028725003358,1.0,0.0,0.0,0.0,1.0,0.0,0.0,0.0,1.0,0.0368510232307,-0.264892854542,9.75334180593,0.1,0.0,0.0,0.0,0.1,0.0,0.0,0.0,0.1
1405448446618239753,145,1405448446618239753,ardrone_base_link,-0.039422505965,0.00856453430356,-0.00501510023333,0.999173340089,1.0,0.0,0.0,0.0,1.0,0.0,0.0,0.0,100000.0,-0.00110652204603,-0.00495412200689,0.000183965545148,1.0,0.0,0.0,0.0,1.0,0.0,0.0,0.0,1.0,0.0371259295847,-0.265103869885,9.77464544773,0.1,0.0,0.0,0.0,0.1,0.0,0.0,0.0,0.1
1405448446619516879,146,1405448446619516879,ardrone_base_link,-0.0394224808182,0.00855615904753,-0.00502416488472,0.999173367297,1.0,0.0,0.0,0.0,1.0,0.0,0.0,0.0,100000.0,-0.00349713186733,-0.00465596839786,0.000122028330225,1.0,0.0,0.0,0.0,1.0,0.0,0.0,0.0,1.0,0.0360070394352,-0.287891829386,9.77361855507,0.1,0.0,0.0,0.0,0.1,0.0,0.0,0.0,0.1
1405448446620802676,147,1405448446620802676,ardrone_base_link,-0.0394224808182,0.00855615904753,-0.00502416488472,0.999173367297,1.0,0.0,0.0,0.0,1.0,0.0,0.0,0.0,100000.0,-0.00272071966901,-0.00469000358135,-2.05103933695e-05,1.0,0.0,0.0,0.0,1.0,0.0,0.0,0.0,1.0,0.0565986413509,-0.308455073833,9.74314005375,0.1,0.0,0.0,0.0,0.1,0.0,0.0,0.0,0.1
1405448446622073121,148,1405448446622073121,ardrone_base_link,-0.0394224558249,0.00854778325084,-0.00503322903743,0.999173394353,1.0,0.0,0.0,0.0,1.0,0.0,0.0,0.0,100000.0,-0.00381885422394,-0.00466954801232,5.07190852659e-05,1.0,0.0,0.0,0.0,1.0,0.0,0.0,0.0,1.0,0.0786668304354,-0.302300800383,9.7459794879,0.1,0.0,0.0,0.0,0.1,0.0,0.0,0.0,0.1
1405448446629425187,149,1405448446629425187,ardrone_base_link,-0.0394224309749,0.00853940797344,-0.00504229317004,0.999173421247,1.0,0.0,0.0,0.0,1.0,0.0,0.0,0.0,100000.0,-0.00480751646683,-0.00470388773829,-1.01427576737e-06,1.0,0.0,0.0,0.0,1.0,0.0,0.0,0.0,1.0,0.0732816084288,-0.299188579619,9.7507383585,0.1,0.0,0.0,0.0,0.1,0.0,0.0,0.0,0.1
1405448446630613517,150,1405448446630613517,ardrone_base_link,-0.0394224807159,0.00853068867395,-0.00504263797268,0.999173492026,1.0,0.0,0.0,0.0,1.0,0.0,0.0,0.0,100000.0,-0.00133361341432,-0.00477089546621,1.13321148092e-05,1.0,0.0,0.0,0.0,1.0,0.0,0.0,0.0,1.0,0.0703673103824,-0.300103009865,9.74863083363,0.1,0.0,0.0,0.0,0.1,0.0,0.0,0.0,0.1
1405448446631850714,151,1405448446631850714,ardrone_base_link,-0.039422530454,0.00852196937381,-0.00504298277493,0.999173562728,1.0,0.0,0.0,0.0,1.0,0.0,0.0,0.0,100000.0,-0.00409925542772,-0.00472171232104,6.52056623949e-05,1.0,0.0,0.0,0.0,1.0,0.0,0.0,0.0,1.0,0.050180940982,-0.276838330925,9.75078158379,0.1,0.0,0.0,0.0,0.1,0.0,0.0,0.0,0.1
1405448446633276018,152,1405448446633276018,ardrone_base_link,-0.0394224560851,0.0085223133959,-0.005051702106,0.999173518683,1.0,0.0,0.0,0.0,1.0,0.0,0.0,0.0,100000.0,-0.0039443532005,-0.00469060568139,2.95491918223e-05,1.0,0.0,0.0,0.0,1.0,0.0,0.0,0.0,1.0,0.0279245813377,-0.277260452881,9.75093929768,0.1,0.0,0.0,0.0,0.1,0.0,0.0,0.0,0.1
1405448446634633731,153,1405448446634633731,ardrone_base_link,-0.0394224560851,0.0085223133959,-0.005051702106,0.999173518683,1.0,0.0,0.0,0.0,1.0,0.0,0.0,0.0,100000.0,-0.00171285890974,-0.00471500307322,1.60017298185e-05,1.0,0.0,0.0,0.0,1.0,0.0,0.0,0.0,1.0,0.0336770517286,-0.281883952394,9.75091593266,0.1,0.0,0.0,0.0,0.1,0.0,0.0,0.0,0.1
1405448446636092379,154,1405448446636092379,ardrone_base_link,-0.0394224560851,0.0085223133959,-0.005051702106,0.999173518683,1.0,0.0,0.0,0.0,1.0,0.0,0.0,0.0,100000.0,-0.00465564150363,-0.00471589202061,3.38480022037e-05,1.0,0.0,0.0,0.0,1.0,0.0,0.0,0.0,1.0,0.0371349082328,-0.257423385978,9.75182950497,0.1,0.0,0.0,0.0,0.1,0.0,0.0,0.0,0.1
1405448446637115557,155,1405448446637115557,ardrone_base_link,-0.039422530454,0.00852196937381,-0.00504298277493,0.999173562728,1.0,0.0,0.0,0.0,1.0,0.0,0.0,0.0,100000.0,-0.00110422563739,-0.00218508346006,2.8148489946e-05,1.0,0.0,0.0,0.0,1.0,0.0,0.0,0.0,1.0,0.0582790837623,-0.258529555425,9.75127692223,0.1,0.0,0.0,0.0,0.1,0.0,0.0,0.0,0.1
1405448446638349383,156,1405448446638349383,ardrone_base_link,-0.0394226048198,0.00852162535107,-0.00503426344348,0.999173606698,1.0,0.0,0.0,0.0,1.0,0.0,0.0,0.0,100000.0,0.000131181441247,-0.00306185614318,2.93345365208e-05,1.0,0.0,0.0,0.0,1.0,0.0,0.0,0.0,1.0,0.0580953534693,-0.263894748315,9.75113322735,0.1,0.0,0.0,0.0,0.1,0.0,0.0,0.0,0.1
1405448446639590987,157,1405448446639590987,ardrone_base_link,-0.0394226048198,0.00852162535107,-0.00503426344348,0.999173606698,1.0,0.0,0.0,0.0,1.0,0.0,0.0,0.0,100000.0,-0.00195246771909,-0.00194142735563,3.35739750881e-05,1.0,0.0,0.0,0.0,1.0,0.0,0.0,0.0,1.0,0.029963551322,-0.28527930975,9.75077457428,0.1,0.0,0.0,0.0,0.1,0.0,0.0,0.0,0.1
1405448446640982676,158,1405448446640982676,ardrone_base_link,-0.0394225551579,0.00853034465164,-0.00503391864184,0.999173535993,1.0,0.0,0.0,0.0,1.0,0.0,0.0,0.0,100000.0,0.000267690746114,-0.000855521764606,2.76185455732e-05,1.0,0.0,0.0,0.0,1.0,0.0,0.0,0.0,1.0,0.0324896386359,-0.308578981459,9.74965947866,0.1,0.0,0.0,0.0,0.1,0.0,0.0,0.0,0.1
1405448446642227921,159,1405448446642227921,ardrone_base_link,-0.0394225551579,0.00853034465164,-0.00503391864184,0.999173535993,1.0,0.0,0.0,0.0,1.0,0.0,0.0,0.0,100000.0,-0.00125159858726,-0.00437465542927,2.80497188214e-05,1.0,0.0,0.0,0.0,1.0,0.0,0.0,0.0,1.0,0.0373088840861,-0.30327661857,9.74984873533,0.1,0.0,0.0,0.0,0.1,0.0,0.0,0.0,0.1
1405448446643543263,160,1405448446643543263,ardrone_base_link,-0.0394225551579,0.00853034465164,-0.00503391864184,0.999173535993,1.0,0.0,0.0,0.0,1.0,0.0,0.0,0.0,100000.0,-0.00169537914917,-0.00165824277792,3.0991359381e-05,1.0,0.0,0.0,0.0,1.0,0.0,0.0,0.0,1.0,0.0357772430871,-0.301386789978,9.75000177622,0.1,0.0,0.0,0.0,0.1,0.0,0.0,0.0,0.1
1405448446644775530,161,1405448446644775530,ardrone_base_link,-0.0394225551579,0.00853034465164,-0.00503391864184,0.999173535993,1.0,0.0,0.0,0.0,1.0,0.0,0.0,0.0,100000.0,-0.000593051547185,-0.00430203974247,2.94935016427e-05,1.0,0.0,0.0,0.0,1.0,0.0,0.0,0.0,1.0,0.0357715273276,-0.302642605081,9.72651116848,0.1,0.0,0.0,0.0,0.1,0.0,0.0,0.0,0.1
1405448446646170574,162,1405448446646170574,ardrone_base_link,-0.0394138321873,0.00853030070428,-0.00503399311313,0.999173880121,1.0,0.0,0.0,0.0,1.0,0.0,0.0,0.0,100000.0,-0.000870021060109,-0.00564968260005,2.94886722259e-05,1.0,0.0,0.0,0.0,1.0,0.0,0.0,0.0,1.0,0.0347585053649,-0.301687669381,9.70366777182,0.1,0.0,0.0,0.0,0.1,0.0,0.0,0.0,0.1
1405448446647443784,163,1405448446647443784,ardrone_base_link,-0.0394138321873,0.00853030070428,-0.00503399311313,0.999173880121,1.0,0.0,0.0,0.0,1.0,0.0,0.0,0.0,100000.0,-0.00369049911387,-0.0038444949314,2.99528419418e-05,1.0,0.0,0.0,0.0,1.0,0.0,0.0,0.0,1.0,0.0350823413581,-0.301830980927,9.7094196558,0.1,0.0,0.0,0.0,0.1,0.0,0.0,0.0,0.1
1405448446650345779,164,1405448446650345779,ardrone_base_link,-0.0394138074832,0.00852192534731,-0.0050430571731,0.999173906856,1.0,0.0,0.0,0.0,1.0,0.0,0.0,0.0,100000.0,-0.0025427818764,-0.00590587221086,2.92637923849e-05,1.0,0.0,0.0,0.0,1.0,0.0,0.0,0.0,1.0,0.0345111396164,-0.301267591864,9.71244367361,0.1,0.0,0.0,0.0,0.1,0.0,0.0,0.0,0.1
1405448446651623090,165,1405448446651623090,ardrone_base_link,-0.0394138074832,0.00852192534731,-0.0050430571731,0.999173906856,1.0,0.0,0.0,0.0,1.0,0.0,0.0,0.0,100000.0,-0.00383860757574,-0.0044993404299,2.95696609101e-05,1.0,0.0,0.0,0.0,1.0,0.0,0.0,0.0,1.0,0.0345090700779,-0.301395095512,9.73418949842,0.1,0.0,0.0,0.0,0.1,0.0,0.0,0.0,0.1
1405448446660541536,166,1405448446660541536,ardrone_base_link,-0.0394137331147,0.00852226929328,-0.00505177650717,0.99917386281,1.0,0.0,0.0,0.0,1.0,0.0,0.0,0.0,100000.0,-0.00493465084583,-0.00403610616922,2.98634768114e-05,1.0,0.0,0.0,0.0,1.0,0.0,0.0,0.0,1.0,0.0345790533349,-0.301262845844,9.75749844313,0.1,0.0,0.0,0.0,0.1,0.0,0.0,0.0,0.1
1405448446661914136,167,1405448446661914136,ardrone_base_link,-0.0394137829253,0.00851354998992,-0.00505212123353,0.999173933434,1.0,0.0,0.0,0.0,1.0,0.0,0.0,0.0,100000.0,-0.00124331028201,-0.00502702500671,2.95405479847e-05,1.0,0.0,0.0,0.0,1.0,0.0,0.0,0.0,1.0,0.0335942040198,-0.300241940469,9.75162914991,0.1,0.0,0.0,0.0,0.1,0.0,0.0,0.0,0.1
1405448446663318690,168,1405448446663318690,ardrone_base_link,-0.0394137086299,0.00851389393567,-0.00506084056784,0.999173889308,1.0,0.0,0.0,0.0,1.0,0.0,0.0,0.0,100000.0,-0.00407259911299,-0.00481872260571,2.95838181046e-05,1.0,0.0,0.0,0.0,1.0,0.0,0.0,0.0,1.0,0.0330680712126,-0.299435993284,9.74879906178,0.1,0.0,0.0,0.0,0.1,0.0,0.0,0.0,0.1
1405448446664525700,169,1405448446664525700,ardrone_base_link,-0.0394137086299,0.00851389393567,-0.00506084056784,0.999173889308,1.0,0.0,0.0,0.0,1.0,0.0,0.0,0.0,100000.0,-0.001422311645,-0.00458022812381,2.96645521303e-05,1.0,0.0,0.0,0.0,1.0,0.0,0.0,0.0,1.0,0.0556017672643,-0.298623949289,9.74980083704,0.1,0.0,0.0,0.0,0.1,0.0,0.0,0.0,0.1
1405448446667539613,170,1405448446667539613,ardrone_base_link,-0.0394137585165,0.00850517411238,-0.00506118531498,0.999173959857,1.0,0.0,0.0,0.0,1.0,0.0,0.0,0.0,100000.0,-1.43158249557e-05,-0.00480875186622,2.95802528854e-05,1.0,0.0,0.0,0.0,1.0,0.0,0.0,0.0,1.0,0.0778466451913,-0.298142921925,9.74889135361,0.1,0.0,0.0,0.0,0.1,0.0,0.0,0.0,0.1
1405448446668912986,171,1405448446668912986,ardrone_base_link,-0.0394137342465,0.00849679877463,-0.00507024989606,0.999173986115,1.0,0.0,0.0,0.0,1.0,0.0,0.0,0.0,100000.0,-0.00441656727344,-0.00464852619916,2.96310390695e-05,1.0,0.0,0.0,0.0,1.0,0.0,0.0,0.0,1.0,0.049311990384,-0.298119173571,9.726257658,0.1,0.0,0.0,0.0,0.1,0.0,0.0,0.0,0.1
1405448446670080747,172,1405448446670080747,ardrone_base_link,-0.0394137342465,0.00849679877463,-0.00507024989606,0.999173986115,1.0,0.0,0.0,0.0,1.0,0.0,0.0,0.0,100000.0,-0.00144782080315,-0.00464553479105,-0.00135451729875,1.0,0.0,0.0,0.0,1.0,0.0,0.0,0.0,1.0,0.0248824852984,-0.299077541009,9.7271525383,0.1,0.0,0.0,0.0,0.1,0.0,0.0,0.0,0.1
1405448446671707537,173,1405448446671707537,ardrone_base_link,-0.039422457218,0.00849684303852,-0.00507017571724,0.999173641988,1.0,0.0,0.0,0.0,1.0,0.0,0.0,0.0,100000.0,-0.00397749105468,-0.00477601308376,-0.000876388628967,1.0,0.0,0.0,0.0,1.0,0.0,0.0,0.0,1.0,0.0335579540115,-0.300601487979,9.75579396486,0.1,0.0,0.0,0.0,0.1,0.0,0.0,0.0,0.1
1405448446672800247,174,1405448446672800247,ardrone_base_link,-0.0394223830684,0.00849718705997,-0.005078895049,0.999173597705,1.0,0.0,0.0,0.0,1.0,0.0,0.0,0.0,100000.0,-0.00299963727593,-0.00469981599599,-0.00148477964103,1.0,0.0,0.0,0.0,1.0,0.0,0.0,0.0,1.0,0.0363103876822,-0.301241287962,9.75294226408,0.1,0.0,0.0,0.0,0.1,0.0,0.0,0.0,0.1
1405448446674100294,175,1405448446674100294,ardrone_base_link,-0.0394225071723,0.00848812373709,-0.0050705205198,0.999173712377,1.0,0.0,0.0,0.0,1.0,0.0,0.0,0.0,100000.0,0.000671306392178,-0.00467657204717,-0.000694334099535,1.0,0.0,0.0,0.0,1.0,0.0,0.0,0.0,1.0,0.0348796726204,-0.301593880728,9.74826458693,0.1,0.0,0.0,0.0,0.1,0.0,0.0,0.0,0.1
1405448446675452320,176,1405448446675452320,ardrone_base_link,-0.0394225071723,0.00848812373709,-0.0050705205198,0.999173712377,1.0,0.0,0.0,0.0,1.0,0.0,0.0,0.0,100000.0,-0.00115006847773,-0.00471631903201,0.000750360777602,1.0,0.0,0.0,0.0,1.0,0.0,0.0,0.0,1.0,0.0353157976177,-0.301787609607,9.75039430857,0.1,0.0,0.0,0.0,0.1,0.0,0.0,0.0,0.1
1405448446678685725,177,1405448446678685725,ardrone_base_link,-0.0394225071723,0.00848812373709,-0.0050705205198,0.999173712377,1.0,0.0,0.0,0.0,1.0,0.0,0.0,0.0,100000.0,-0.000182509887964,-0.00216409866698,-0.000126148341224,1.0,0.0,0.0,0.0,1.0,0.0,0.0,0.0,1.0,0.0353351627477,-0.301731807366,9.74984873533,0.1,0.0,0.0,0.0,0.1,0.0,0.0,0.0,0.1
1405448446679768277,178,1405448446679768277,ardrone_base_link,-0.039422457218,0.00849684303852,-0.00507017571724,0.999173641988,1.0,0.0,0.0,0.0,1.0,0.0,0.0,0.0,100000.0,-0.00125685636885,-0.00304032326676,0.000530429475475,1.0,0.0,0.0,0.0,1.0,0.0,0.0,0.0,1.0,0.0128829305293,-0.302020438388,9.75063788891,0.1,0.0,0.0,0.0,0.1,0.0,0.0,0.0,0.1
1405448446682807240,179,1405448446682807240,ardrone_base_link,-0.0394224072607,0.0085055623393,-0.0050698309143,0.999173571523,1.0,0.0,0.0,0.0,1.0,0.0,0.0,0.0,100000.0,-0.00162013154477,-0.00194042688236,-0.00017695792485,1.0,0.0,0.0,0.0,1.0,0.0,0.0,0.0,1.0,0.0131893693935,-0.302107783407,9.7503148675,0.1,0.0,0.0,0.0,0.1,0.0,0.0,0.0,0.1
1405448446685407630,180,1405448446685407630,ardrone_base_link,-0.0394224072607,0.0085055623393,-0.0050698309143,0.999173571523,1.0,0.0,0.0,0.0,1.0,0.0,0.0,0.0,100000.0,-0.000754048116505,-0.00337116327137,-0.000287249189569,1.0,0.0,0.0,0.0,1.0,0.0,0.0,0.0,1.0,0.0409707509913,-0.301890178397,9.74985107183,0.1,0.0,0.0,0.0,0.1,0.0,0.0,0.0,0.1
1405448446691594414,181,1405448446691594414,ardrone_base_link,-0.039422457218,0.00849684303852,-0.00507017571724,0.999173641988,1.0,0.0,0.0,0.0,1.0,0.0,0.0,0.0,100000.0,-0.000735036330298,-0.00601231958717,0.000183966738405,1.0,0.0,0.0,0.0,1.0,0.0,0.0,0.0,1.0,0.0394475706853,-0.30262584798,9.77332473993,0.1,0.0,0.0,0.0,0.1,0.0,0.0,0.0,0.1
1405448446693079001,182,1405448446693079001,ardrone_base_link,-0.039422457218,0.00849684303852,-0.00507017571724,0.999173641988,1.0,0.0,0.0,0.0,1.0,0.0,0.0,0.0,100000.0,-0.00107368291356,-0.00441542034969,0.000122027326142,1.0,0.0,0.0,0.0,1.0,0.0,0.0,0.0,1.0,0.0134885192383,-0.303523137793,9.79675518274,0.1,0.0,0.0,0.0,0.1,0.0,0.0,0.0,0.1
1405448446694340980,183,1405448446694340980,ardrone_base_link,-0.0394224072607,0.0085055623393,-0.0050698309143,0.999173571523,1.0,0.0,0.0,0.0,1.0,0.0,0.0,0.0,100000.0,-0.000965623185039,-0.0056106406264,-2.05101023312e-05,1.0,0.0,0.0,0.0,1.0,0.0,0.0,0.0,1.0,-0.00662250538589,-0.303435555473,9.79148929119,0.1,0.0,0.0,0.0,0.1,0.0,0.0,0.0,0.1
1405448446696084180,184,1405448446696084180,ardrone_base_link,-0.0394136842898,0.00850551807842,-0.00506990516923,0.99917391565,1.0,0.0,0.0,0.0,1.0,0.0,0.0,0.0,100000.0,-0.00101994746365,-0.00431730598211,5.07192598889e-05,1.0,0.0,0.0,0.0,1.0,0.0,0.0,0.0,1.0,0.0197755032685,-0.302112127841,9.76442734003,0.1,0.0,0.0,0.0,0.1,0.0,0.0,0.0,0.1
1405448446697143823,185,1405448446697143823,ardrone_base_link,-0.0394136343271,0.00851423790128,-0.00506956042148,0.999173845104,1.0,0.0,0.0,0.0,1.0,0.0,0.0,0.0,100000.0,-0.00101825525053,-0.00158601719886,-1.01469777292e-06,1.0,0.0,0.0,0.0,1.0,0.0,0.0,0.0,1.0,0.0211222365964,-0.301251966506,9.74314063787,0.1,0.0,0.0,0.0,0.1,0.0,0.0,0.0,0.1
1405448446709279277,186,1405448446709279277,ardrone_base_link,-0.0394137086299,0.00851389393567,-0.00506084056784,0.999173889308,1.0,0.0,0.0,0.0,1.0,0.0,0.0,0.0,100000.0,-0.000915840035304,-0.00331883644685,1.13323476398e-05,1.0,0.0,0.0,0.0,1.0,0.0,0.0,0.0,1.0,0.0128973910585,-0.300627189502,9.7252389431,0.1,0.0,0.0,0.0,0.1,0.0,0.0,0.0,0.1
1405448446710245374,187,1405448446710245374,ardrone_base_link,-0.0394137086299,0.00851389393567,-0.00506084056784,0.999173889308,1.0,0.0,0.0,0.0,1.0,0.0,0.0,0.0,100000.0,-0.000968050211668,-0.00209344411269,6.52057715342e-05,1.0,0.0,0.0,0.0,1.0,0.0,0.0,0.0,1.0,0.037027705228,-0.299580582604,9.70488041639,0.1,0.0,0.0,0.0,0.1,0.0,0.0,0.0,0.1
1405448446711602001,188,1405448446711602001,ardrone_base_link,-0.0394136587433,0.0085226132386,-0.00506049584086,0.999173818687,1.0,0.0,0.0,0.0,1.0,0.0,0.0,0.0,100000.0,-0.00100655015558,-0.00327787362039,2.95490099234e-05,1.0,0.0,0.0,0.0,1.0,0.0,0.0,0.0,1.0,0.0359705795068,-0.299588888139,9.70884721279,0.1,0.0,0.0,0.0,0.1,0.0,0.0,0.0,0.1
1405448446712997195,189,1405448446712997195,ardrone_base_link,-0.0394137086299,0.00851389393567,-0.00506084056784,0.999173889308,1.0,0.0,0.0,0.0,1.0,0.0,0.0,0.0,100000.0,-0.000972705951426,-0.00604763953015,1.60018025781e-05,1.0,0.0,0.0,0.0,1.0,0.0,0.0,0.0,1.0,0.0316008802503,-0.299698667228,9.71253654957,0.1,0.0,0.0,0.0,0.1,0.0,0.0,0.0,0.1
1405448446714062274,190,1405448446714062274,ardrone_base_link,-0.0394137086299,0.00851389393567,-0.00506084056784,0.999173889308,1.0,0.0,0.0,0.0,1.0,0.0,0.0,0.0,100000.0,-0.000976657262072,-0.00435030087829,3.38480167557e-05,1.0,0.0,0.0,0.0,1.0,0.0,0.0,0.0,1.0,0.0340418814681,-0.29962519519,9.71070356369,0.1,0.0,0.0,0.0,0.1,0.0,0.0,0.0,0.1
1405448446715466390,191,1405448446715466390,ardrone_base_link,-0.0394137086299,0.00851389393567,-0.00506084056784,0.999173889308,1.0,0.0,0.0,0.0,1.0,0.0,0.0,0.0,100000.0,-0.000978258671239,-0.00304235750809,2.81484317384e-05,1.0,0.0,0.0,0.0,1.0,0.0,0.0,0.0,1.0,0.0337787443306,-0.299686053768,9.71128710508,0.1,0.0,0.0,0.0,0.1,0.0,0.0,0.0,0.1
1405448446716804436,192,1405448446716804436,ardrone_base_link,-0.0394137086299,0.00851389393567,-0.00506084056784,0.999173889308,1.0,0.0,0.0,0.0,1.0,0.0,0.0,0.0,100000.0,-0.000969687709585,-0.00272096367553,2.93345874525e-05,1.0,0.0,0.0,0.0,1.0,0.0,0.0,0.0,1.0,0.0342882044613,-0.299728129059,9.7110791564,0.1,0.0,0.0,0.0,0.1,0.0,0.0,0.0,0.1
1405448446721776384,193,1405448446721776384,ardrone_base_link,-0.0394136587433,0.0085226132386,-0.00506049584086,0.999173818687,1.0,0.0,0.0,0.0,1.0,0.0,0.0,0.0,100000.0,-0.000979036325589,-0.00134145456832,3.35739678121e-05,1.0,0.0,0.0,0.0,1.0,0.0,0.0,0.0,1.0,0.0337789633777,-0.299793149531,9.7112783432,0.1,0.0,0.0,0.0,0.1,0.0,0.0,0.0,0.1
1405448446722853133,194,1405448446722853133,ardrone_base_link,-0.0394136587433,0.0085226132386,-0.00506049584086,0.999173818687,1.0,0.0,0.0,0.0,1.0,0.0,0.0,0.0,100000.0,-0.000980099197477,-0.00362241826952,2.76185182884e-05,1.0,0.0,0.0,0.0,1.0,0.0,0.0,0.0,1.0,0.0331910205074,-0.322354340553,9.71012761593,0.1,0.0,0.0,0.0,0.1,0.0,0.0,0.0,0.1
1405448446727842038,195,1405448446727842038,ardrone_base_link,-0.0394135843644,0.00852295720378,-0.00506921569388,0.999173774486,1.0,0.0,0.0,0.0,1.0,0.0,0.0,0.0,100000.0,-0.000974244205281,-0.00618179515004,2.80497333733e-05,1.0,0.0,0.0,0.0,1.0,0.0,0.0,0.0,1.0,0.0101321077673,-0.344689073414,9.70961066484,0.1,0.0,0.0,0.0,0.1,0.0,0.0,0.0,0.1
1405448446731007644,196,1405448446731007644,ardrone_base_link,-0.0394135343987,0.00853167650562,-0.0050688709659,0.999173703792,1.0,0.0,0.0,0.0,1.0,0.0,0.0,0.0,100000.0,-0.000976466340944,-0.00430749263614,3.0991366657e-05,1.0,0.0,0.0,0.0,1.0,0.0,0.0,0.0,1.0,-0.0108961371006,-0.340081308782,9.73384311199,0.1,0.0,0.0,0.0,0.1,0.0,0.0,0.0,0.1
1405448446731827935,197,1405448446731827935,ardrone_base_link,-0.0394134599451,0.00853202044921,-0.0050775902982,0.99917365952,1.0,0.0,0.0,0.0,1.0,0.0,0.0,0.0,100000.0,-0.00353305926546,-0.00563913583755,2.94934943668e-05,1.0,0.0,0.0,0.0,1.0,0.0,0.0,0.0,1.0,-0.00379338869825,-0.3152241759,9.75773501396,0.1,0.0,0.0,0.0,0.1,0.0,0.0,0.0,0.1
1405448446737447976,198,1405448446737447976,ardrone_base_link,-0.0394134599451,0.00853202044921,-0.0050775902982,0.99917365952,1.0,0.0,0.0,0.0,1.0,0.0,0.0,0.0,100000.0,-0.00264877849258,-0.00425820052624,2.94886776828e-05,1.0,0.0,0.0,0.0,1.0,0.0,0.0,0.0,1.0,-0.000794090620184,-0.294588262588,9.75285172462,0.1,0.0,0.0,0.0,0.1,0.0,0.0,0.0,0.1
1405448446738516695,199,1405448446738516695,ardrone_base_link,-0.0394133353677,0.00854108369247,-0.00508596490052,0.999173544408,1.0,0.0,0.0,0.0,1.0,0.0,0.0,0.0,100000.0,-0.00377308321185,-0.00406729150563,2.99528328469e-05,1.0,0.0,0.0,0.0,1.0,0.0,0.0,0.0,1.0,-0.00301213079947,-0.299552745372,9.74964604378,0.1,0.0,0.0,0.0,0.1,0.0,0.0,0.0,0.1
1405448446741699456,200,1405448446741699456,ardrone_base_link,-0.0394132608321,0.00854142763432,-0.00509468423142,0.999173499987,1.0,0.0,0.0,0.0,1.0,0.0,0.0,0.0,100000.0,-0.00486890226603,-0.00502696586773,2.92637996608e-05,1.0,0.0,0.0,0.0,1.0,0.0,0.0,0.0,1.0,-0.00303893269156,-0.302319090813,9.75115776062,0.1,0.0,0.0,0.0,0.1,0.0,0.0,0.0,0.1
1405448446742841931,201,1405448446742841931,ardrone_base_link,-0.0394132608321,0.00854142763432,-0.00509468423142,0.999173499987,1.0,0.0,0.0,0.0,1.0,0.0,0.0,0.0,100000.0,-0.00131730712019,-0.00485292309895,2.95696518151e-05,1.0,0.0,0.0,0.0,1.0,0.0,0.0,0.0,1.0,-0.00428466592566,-0.29949289076,9.72739903927,0.1,0.0,0.0,0.0,0.1,0.0,0.0,0.0,0.1
1405448446744413165,202,1405448446744413165,ardrone_base_link,-0.0394131360129,0.00855049089481,-0.00510305935044,0.999173384654,1.0,0.0,0.0,0.0,1.0,0.0,0.0,0.0,100000.0,-0.00405959459022,-0.0045638596639,2.98634695355e-05,1.0,0.0,0.0,0.0,1.0,0.0,0.0,0.0,1.0,-0.00422538431594,-0.299588468298,9.7279971838,0.1,0.0,0.0,0.0,0.1,0.0,0.0,0.0,0.1
1405448446745420426,203,1405448446745420426,ardrone_base_link,-0.0394130857309,0.00855921071268,-0.00510271459828,0.999173313739,1.0,0.0,0.0,0.0,1.0,0.0,0.0,0.0,100000.0,-0.00138742348645,-0.00219541345723,2.95405625366e-05,1.0,0.0,0.0,0.0,1.0,0.0,0.0,0.0,1.0,-0.00325460421154,-0.29986592792,9.75648089647,0.1,0.0,0.0,0.0,0.1,0.0,0.0,0.0,0.1
1405448446870215559,204,1405448446870215559,ardrone_base_link,-0.0393879348099,0.00863939682456,-0.00492510425142,0.999174506661,1.0,0.0,0.0,0.0,1.0,0.0,0.0,0.0,100000.0,-0.00124171865173,-0.00468146055937,-2.72019024123e-05,1.0,0.0,0.0,0.0,1.0,0.0,0.0,0.0,1.0,0.0341967089567,-0.285449199006,9.75042526722,0.1,0.0,0.0,0.0,0.1,0.0,0.0,0.0,0.1
1405448446871566525,205,1405448446871566525,ardrone_base_link,-0.0393878594163,0.00863974054475,-0.00493382359073,0.999174463644,1.0,0.0,0.0,0.0,1.0,0.0,0.0,0.0,100000.0,-0.00258512725122,-0.00456251762807,7.96803942649e-05,1.0,0.0,0.0,0.0,1.0,0.0,0.0,0.0,1.0,0.0336822381243,-0.306827408075,9.74975527525,0.1,0.0,0.0,0.0,0.1,0.0,0.0,0.0,0.1
1405448446872912073,206,1405448446872912073,ardrone_base_link,-0.0393878594163,0.00863974054475,-0.00493382359073,0.999174463644,1.0,0.0,0.0,0.0,1.0,0.0,0.0,0.0,100000.0,-0.00300816143863,-0.00208680029027,-5.09657547809e-06,1.0,0.0,0.0,0.0,1.0,0.0,0.0,0.0,1.0,0.0343381038401,-0.301746885106,9.74982945919,0.1,0.0,0.0,0.0,0.1,0.0,0.0,0.0,0.1
1405448446874164732,207,1405448446874164732,ardrone_base_link,-0.0393877350747,0.00864880359252,-0.00494219895303,0.999174348746,1.0,0.0,0.0,0.0,1.0,0.0,0.0,0.0,100000.0,-0.00433506723493,-0.00304766464978,6.44830142846e-05,1.0,0.0,0.0,0.0,1.0,0.0,0.0,0.0,1.0,0.0121314279502,-0.299296606332,9.75048952103,0.1,0.0,0.0,0.0,0.1,0.0,0.0,0.0,0.1
1405448446875465408,208,1405448446875465408,ardrone_base_link,-0.0393876861311,0.00865752289962,-0.0049418544563,0.999174276867,1.0,0.0,0.0,0.0,1.0,0.0,0.0,0.0,100000.0,-0.00200520013459,-0.00187163648661,4.64371478301e-05,1.0,0.0,0.0,0.0,1.0,0.0,0.0,0.0,1.0,-0.00938494163565,-0.30176723823,9.75098719597,0.1,0.0,0.0,0.0,0.1,0.0,0.0,0.0,0.1
1405448446876592510,209,1405448446876592510,ardrone_base_link,-0.0393875615537,0.00866658644336,-0.00495022927533,0.999174161748,1.0,0.0,0.0,0.0,1.0,0.0,0.0,0.0,100000.0,-0.00200757198036,-0.000768303463701,-6.25036045676e-06,1.0,0.0,0.0,0.0,1.0,0.0,0.0,0.0,1.0,-0.00339335341705,-0.301478242129,9.75083181858,0.1,0.0,0.0,0.0,0.1,0.0,0.0,0.0,0.1
1405448446877958176,210,1405448446877958176,ardrone_base_link,-0.0393875125281,0.00867530574871,-0.00494988477722,0.99917408972,1.0,0.0,0.0,0.0,1.0,0.0,0.0,0.0,100000.0,-0.00300613185391,-0.00430412963033,3.36455559591e-05,1.0,0.0,0.0,0.0,1.0,0.0,0.0,0.0,1.0,-5.96129299993e-05,-0.301408475637,9.75076990128,0.1,0.0,0.0,0.0,0.1,0.0,0.0,0.0,0.1
1405448446879271077,211,1405448446879271077,ardrone_base_link,-0.0393873386086,0.00869308807307,-0.00495791511427,0.999173902209,1.0,0.0,0.0,0.0,1.0,0.0,0.0,0.0,100000.0,-0.00278546870686,0.000951320398599,4.12375738961e-05,1.0,0.0,0.0,0.0,1.0,0.0,0.0,0.0,1.0,-0.0237207280938,-0.301441077143,9.75133650303,0.1,0.0,0.0,0.0,0.1,0.0,0.0,0.0,0.1
1405448446880457764,212,1405448446880457764,ardrone_base_link,-0.0393872403812,0.008710527198,-0.0049572260936,0.999173757622,1.0,0.0,0.0,0.0,1.0,0.0,0.0,0.0,100000.0,-0.00272722449154,-0.00257411133498,2.3822482035e-05,1.0,0.0,0.0,0.0,1.0,0.0,0.0,0.0,1.0,-0.0444986090064,-0.279197942466,9.75286808014,0.1,0.0,0.0,0.0,0.1,0.0,0.0,0.0,0.1
1405448446881843621,213,1405448446881843621,ardrone_base_link,-0.0393872673518,0.00871890278526,-0.00494816226045,0.999173728435,1.0,0.0,0.0,0.0,1.0,0.0,0.0,0.0,100000.0,-0.000239751301706,-0.00281365448609,3.24636421283e-05,1.0,0.0,0.0,0.0,1.0,0.0,0.0,0.0,1.0,-0.0158379690489,-0.256723001227,9.75325827599,0.1,0.0,0.0,0.0,0.1,0.0,0.0,0.0,0.1
1405448446883160754,214,1405448446883160754,ardrone_base_link,-0.0393872183081,0.00872762208663,-0.00494781776007,0.999173655951,1.0,0.0,0.0,0.0,1.0,0.0,0.0,0.0,100000.0,-0.00344402226619,8.72982200235e-05,2.97797378153e-05,1.0,0.0,0.0,0.0,1.0,0.0,0.0,0.0,1.0,0.00907671959139,-0.261922503263,9.75242122412,0.1,0.0,0.0,0.0,0.1,0.0,0.0,0.0,0.1
1405448446884565414,215,1405448446884565414,ardrone_base_link,-0.0393872944686,0.00872727837204,-0.00493909842781,0.99917369909,1.0,0.0,0.0,0.0,1.0,0.0,0.0,0.0,100000.0,-0.00152831687592,-0.0054901400581,2.55354752881e-05,1.0,0.0,0.0,0.0,1.0,0.0,0.0,0.0,1.0,0.00147664663673,-0.265050166845,9.75244984627,0.1,0.0,0.0,0.0,0.1,0.0,0.0,0.0,0.1
1405448446885913471,216,1405448446885913471,ardrone_base_link,-0.039387245498,0.00873599767318,-0.00493875392769,0.999173626527,1.0,0.0,0.0,0.0,1.0,0.0,0.0,0.0,100000.0,-0.00424563884735,-0.00137248146348,3.1955067243e-05,1.0,0.0,0.0,0.0,1.0,0.0,0.0,0.0,1.0,-0.00218513684231,-0.263037525862,9.72917010784,0.1,0.0,0.0,0.0,0.1,0.0,0.0,0.0,0.1
1405448446887288102,217,1405448446887288102,ardrone_base_link,-0.0393784013992,0.0087450175183,-0.0049472050676,0.999173854409,1.0,0.0,0.0,0.0,1.0,0.0,0.0,0.0,100000.0,-0.00538082933053,-0.00355257908814,3.08348317049e-05,1.0,0.0,0.0,0.0,1.0,0.0,0.0,0.0,1.0,0.0208530300297,-0.285891035199,9.72808889151,0.1,0.0,0.0,0.0,0.1,0.0,0.0,0.0,0.1
1405448446890247898,218,1405448446890247898,ardrone_base_link,-0.0393784504482,0.00873629821525,-0.00494754949265,0.999173927046,1.0,0.0,0.0,0.0,1.0,0.0,0.0,0.0,100000.0,-0.00106595037505,-0.00589182320982,2.81990578515e-05,1.0,0.0,0.0,0.0,1.0,0.0,0.0,0.0,1.0,0.0199807526544,-0.308697412908,9.75573263168,0.1,0.0,0.0,0.0,0.1,0.0,0.0,0.0,0.1
1405448446891566376,219,1405448446891566376,ardrone_base_link,-0.0393783742091,0.00873664185266,-0.0049562688269,0.999173883833,1.0,0.0,0.0,0.0,1.0,0.0,0.0,0.0,100000.0,-0.00389713095501,-0.00387958623469,2.9990749681e-05,1.0,0.0,0.0,0.0,1.0,0.0,0.0,0.0,1.0,0.0143150089309,-0.30315930061,9.75333771706,0.1,0.0,0.0,0.0,0.1,0.0,0.0,0.0,0.1
1405448446894601603,220,1405448446894601603,ardrone_base_link,-0.0393783742091,0.00873664185266,-0.0049562688269,0.999173883833,1.0,0.0,0.0,0.0,1.0,0.0,0.0,0.0,100000.0,-0.00138084078208,-0.0031712136697,2.96726575471e-05,1.0,0.0,0.0,0.0,1.0,0.0,0.0,0.0,1.0,0.0381959813647,-0.299371593446,9.74824881554,0.1,0.0,0.0,0.0,0.1,0.0,0.0,0.0,0.1
1405448446903803751,221,1405448446903803751,ardrone_base_link,-0.0393782487657,0.00874570479161,-0.00496464373446,0.999173767912,1.0,0.0,0.0,0.0,1.0,0.0,0.0,0.0,100000.0,-0.00252036261372,-0.00286782509647,2.92517288472e-05,1.0,0.0,0.0,0.0,1.0,0.0,0.0,0.0,1.0,0.0368222231045,-0.300776597857,9.75028215647,0.1,0.0,0.0,0.0,0.1,0.0,0.0,0.0,0.1
1405448446904827102,222,1405448446904827102,ardrone_base_link,-0.0393782487657,0.00874570479161,-0.00496464373446,0.999173767912,1.0,0.0,0.0,0.0,1.0,0.0,0.0,0.0,100000.0,-0.0035791171249,-0.00366374873556,3.00215469906e-05,1.0,0.0,0.0,0.0,1.0,0.0,0.0,0.0,1.0,0.0315114451572,-0.300334506109,9.74988670349,0.1,0.0,0.0,0.0,0.1,0.0,0.0,0.0,0.1
1405448446906116305,223,1405448446906116305,ardrone_base_link,-0.0393782217172,0.00873732914598,-0.00497370801399,0.999173797176,1.0,0.0,0.0,0.0,1.0,0.0,0.0,0.0,100000.0,-0.00255866535008,-0.0052228756249,2.96313664876e-05,1.0,0.0,0.0,0.0,1.0,0.0,0.0,0.0,1.0,0.0335989682935,-0.300467631966,9.75010925531,0.1,0.0,0.0,0.0,0.1,0.0,0.0,0.0,0.1
1405448446907625402,224,1405448446907625402,ardrone_base_link,-0.0393782709915,0.00872860984355,-0.00497405244056,0.999173869728,1.0,0.0,0.0,0.0,1.0,0.0,0.0,0.0,100000.0,-0.00243327417411,-0.00889884866774,2.93883276754e-05,1.0,0.0,0.0,0.0,1.0,0.0,0.0,0.0,1.0,0.0332516007125,-0.300526683405,9.74981251955,0.1,0.0,0.0,0.0,0.1,0.0,0.0,0.0,0.1
1405448446908712574,225,1405448446908712574,ardrone_base_link,-0.0393783202628,0.00871989054046,-0.00497439686675,0.999173942203,1.0,0.0,0.0,0.0,1.0,0.0,0.0,0.0,100000.0,-0.00285180704668,-0.00553726963699,2.97278602375e-05,1.0,0.0,0.0,0.0,1.0,0.0,0.0,0.0,1.0,0.0115081865573,-0.301178750023,9.75048484802,0.1,0.0,0.0,0.0,0.1,0.0,0.0,0.0,0.1
1405448446910173358,226,1405448446910173358,ardrone_base_link,-0.0393781948194,0.0087289534794,-0.00498277177431,0.999173826283,1.0,0.0,0.0,0.0,1.0,0.0,0.0,0.0,100000.0,-0.00260184169747,-0.00430149957538,2.9636452382e-05,1.0,0.0,0.0,0.0,1.0,0.0,0.0,0.0,1.0,-0.0106178811518,-0.301609542593,9.75101114511,0.1,0.0,0.0,0.0,0.1,0.0,0.0,0.0,0.1
1405448446911535123,227,1405448446911535123,ardrone_base_link,-0.0393781948194,0.0087289534794,-0.00498277177431,0.999173826283,1.0,0.0,0.0,0.0,1.0,0.0,0.0,0.0,100000.0,-0.00270169577561,-0.00449044676498,2.95749487123e-05,1.0,0.0,0.0,0.0,1.0,0.0,0.0,0.0,1.0,-0.00445493338048,-0.279092507809,9.75185812712,0.1,0.0,0.0,0.0,0.1,0.0,0.0,0.0,0.1
1405448446912794876,228,1405448446912794876,ardrone_base_link,-0.039378145469,0.0087376727814,-0.00498242734711,0.999173753734,1.0,0.0,0.0,0.0,1.0,0.0,0.0,0.0,100000.0,-0.00279727508314,-0.00306415720843,2.96696889563e-05,1.0,0.0,0.0,0.0,1.0,0.0,0.0,0.0,1.0,-0.00118848515413,-0.257133075595,9.75285815001,0.1,0.0,0.0,0.0,0.1,0.0,0.0,0.0,0.1
1405448446914132094,229,1405448446914132094,ardrone_base_link,-0.0393782217172,0.00873732914598,-0.00497370801399,0.999173797176,1.0,0.0,0.0,0.0,1.0,0.0,0.0,0.0,100000.0,-9.3482201919e-05,-0.00535169895738,2.96052457998e-05,1.0,0.0,0.0,0.0,1.0,0.0,0.0,0.0,1.0,-0.00305607312475,-0.262692161649,9.75262625217,0.1,0.0,0.0,0.0,0.1,0.0,0.0,0.0,0.1
1405448446915299170,230,1405448446915299170,ardrone_base_link,-0.0393782979669,0.00873698548941,-0.00496498816078,0.999173840543,1.0,0.0,0.0,0.0,1.0,0.0,0.0,0.0,100000.0,-0.000998244155198,-0.00537671195343,2.95957797789e-05,1.0,0.0,0.0,0.0,1.0,0.0,0.0,0.0,1.0,-0.00242389472551,-0.265544136241,9.75247788429,0.1,0.0,0.0,0.0,0.1,0.0,0.0,0.0,0.1
1405448446916616124,231,1405448446916616124,ardrone_base_link,-0.0393783250839,0.00874536115529,-0.00495592440122,0.999173811199,1.0,0.0,0.0,0.0,1.0,0.0,0.0,0.0,100000.0,8.719204925e-05,-0.00421761674806,2.96442231047e-05,1.0,0.0,0.0,0.0,1.0,0.0,0.0,0.0,1.0,-0.00116865290911,-0.264615960792,9.77597316504,0.1,0.0,0.0,0.0,0.1,0.0,0.0,0.0,0.1
1405448446917968032,232,1405448446917968032,ardrone_base_link,-0.0393783250839,0.00874536115529,-0.00495592440122,0.999173811199,1.0,0.0,0.0,0.0,1.0,0.0,0.0,0.0,100000.0,-0.00134743703529,-0.00450126221403,2.96193920803e-05,1.0,0.0,0.0,0.0,1.0,0.0,0.0,0.0,1.0,-0.000544148501649,-0.265175352246,9.77541824579,0.1,0.0,0.0,0.0,0.1,0.0,0.0,0.0,0.1
1405448446919280978,233,1405448446919280978,ardrone_base_link,-0.0393784013992,0.0087450175183,-0.0049472050676,0.999173854409,1.0,0.0,0.0,0.0,1.0,0.0,0.0,0.0,100000.0,-0.00149138527922,-0.00465125730261,2.96131183859e-05,1.0,0.0,0.0,0.0,1.0,0.0,0.0,0.0,1.0,-0.00135130807466,-0.264598765597,9.74676221609,0.1,0.0,0.0,0.0,0.1,0.0,0.0,0.0,0.1
1405448446920851849,234,1405448446920851849,ardrone_base_link,-0.0393784287326,0.00875339370318,-0.00493814128829,0.999173824822,1.0,0.0,0.0,0.0,1.0,0.0,0.0,0.0,100000.0,-0.000741185387596,-0.0045416392386,2.96272482956e-05,1.0,0.0,0.0,0.0,1.0,0.0,0.0,0.0,1.0,-0.00102182698465,-0.26517798081,9.74952571392,0.1,0.0,0.0,0.0,0.1,0.0,0.0,0.0,0.1
1405448446956583927,235,1405448446956583927,ardrone_base_link,-0.0393697099173,0.00875335061251,-0.00493821767042,0.999174168401,1.0,0.0,0.0,0.0,1.0,0.0,0.0,0.0,100000.0,-0.000791089842096,-0.0047474456951,2.961789869e-05,1.0,0.0,0.0,0.0,1.0,0.0,0.0,0.0,1.0,-0.000426045730273,-0.288546049967,9.77656430006,0.1,0.0,0.0,0.0,0.1,0.0,0.0,0.0,0.1
1405448446957807853,236,1405448446957807853,ardrone_base_link,-0.0393697099173,0.00875335061251,-0.00493821767042,0.999174168401,1.0,0.0,0.0,0.0,1.0,0.0,0.0,0.0,100000.0,-0.000976059352979,-0.004646549467,2.96188591165e-05,1.0,0.0,0.0,0.0,1.0,0.0,0.0,0.0,1.0,-0.0002717986059,-0.311163809896,9.79632701874,0.1,0.0,0.0,0.0,0.1,0.0,0.0,0.0,0.1
1405448446959337180,237,1405448446959337180,ardrone_base_link,-0.0393697099173,0.00875335061251,-0.00493821767042,0.999174168401,1.0,0.0,0.0,0.0,1.0,0.0,0.0,0.0,100000.0,-0.000908384332433,-0.00452131405473,2.96243597404e-05,1.0,0.0,0.0,0.0,1.0,0.0,0.0,0.0,1.0,-0.000446825860126,-0.305331645161,9.79133566618,0.1,0.0,0.0,0.0,0.1,0.0,0.0,0.0,0.1
1405448446967993926,238,1405448446967993926,ardrone_base_link,-0.039369660939,0.00876206991766,-0.00493787332134,0.999174095609,1.0,0.0,0.0,0.0,1.0,0.0,0.0,0.0,100000.0,-0.00101452576928,-0.00462506478652,2.96196012641e-05,1.0,0.0,0.0,0.0,1.0,0.0,0.0,0.0,1.0,-0.000131236468587,-0.27952278927,9.78923515081,0.1,0.0,0.0,0.0,0.1,0.0,0.0,0.0,0.1
1405448446969202403,239,1405448446969202403,ardrone_base_link,-0.0393697099173,0.00875335061251,-0.00493821767042,0.999174168401,1.0,0.0,0.0,0.0,1.0,0.0,0.0,0.0,100000.0,-0.00352748134173,-0.00463539734483,2.96197613352e-05,1.0,0.0,0.0,0.0,1.0,0.0,0.0,0.0,1.0,0.0219358595554,-0.257932268828,9.76823291779,0.1,0.0,0.0,0.0,0.1,0.0,0.0,0.0,0.1
1405448446974681677,240,1405448446974681677,ardrone_base_link,-0.0393697863068,0.00875300703022,-0.00492949781396,0.999174211459,1.0,0.0,0.0,0.0,1.0,0.0,0.0,0.0,100000.0,-0.00255468208343,-0.00460424181074,2.962185863e-05,1.0,0.0,0.0,0.0,1.0,0.0,0.0,0.0,1.0,0.0428470488638,-0.261828331277,9.7440133214,0.1,0.0,0.0,0.0,0.1,0.0,0.0,0.0,0.1
1405448446975348555,241,1405448446975348555,ardrone_base_link,-0.0393697863068,0.00875300703022,-0.00492949781396,0.999174211459,1.0,0.0,0.0,0.0,1.0,0.0,0.0,0.0,100000.0,-0.00373484170996,-0.00462340377271,2.96203215839e-05,1.0,0.0,0.0,0.0,1.0,0.0,0.0,0.0,1.0,0.0373336478136,-0.264702758193,9.74986509085,0.1,0.0,0.0,0.0,0.1,0.0,0.0,0.0,0.1
1405448446997304307,242,1405448446997304307,ardrone_base_link,-0.039369835209,0.00874428720426,-0.00492984218256,0.999174284183,1.0,0.0,0.0,0.0,1.0,0.0,0.0,0.0,100000.0,-0.00229588127695,-0.00460809329525,2.96206344501e-05,1.0,0.0,0.0,0.0,1.0,0.0,0.0,0.0,1.0,0.0345408775378,-0.262641306221,9.75291831493,0.1,0.0,0.0,0.0,0.1,0.0,0.0,0.0,0.1
1405448447020569547,243,1405448447020569547,ardrone_base_link,-0.0393699115149,0.00874394364136,-0.00492112284481,0.999174327166,1.0,0.0,0.0,0.0,1.0,0.0,0.0,0.0,100000.0,0.00039479508996,-0.0046009561047,2.96212092508e-05,1.0,0.0,0.0,0.0,1.0,0.0,0.0,0.0,1.0,0.036068290472,-0.262672064081,9.75128159523,0.1,0.0,0.0,0.0,0.1,0.0,0.0,0.0,0.1
1405448447021705697,244,1405448447021705697,ardrone_base_link,-0.0393699878178,0.00874360007779,-0.00491240350669,0.999174370072,1.0,0.0,0.0,0.0,1.0,0.0,0.0,0.0,100000.0,-0.00123137235641,-0.00461744191125,2.9620488931e-05,1.0,0.0,0.0,0.0,1.0,0.0,0.0,0.0,1.0,0.0348455218133,-0.261554266885,9.72830092907,0.1,0.0,0.0,0.0,0.1,0.0,0.0,0.0,0.1
1405448447023025054,245,1405448447023025054,ardrone_base_link,-0.0393701127856,0.00873453720537,-0.00490402851399,0.999174485555,1.0,0.0,0.0,0.0,1.0,0.0,0.0,0.0,100000.0,-1.26459635794e-05,-0.00461262324825,2.96206944768e-05,1.0,0.0,0.0,0.0,1.0,0.0,0.0,0.0,1.0,0.0341423350852,-0.260961543769,9.70528229475,0.1,0.0,0.0,0.0,0.1,0.0,0.0,0.0,0.1
1405448447024274638,246,1405448447024274638,ardrone_base_link,-0.0393699878178,0.00874360007779,-0.00491240350669,0.999174370072,1.0,0.0,0.0,0.0,1.0,0.0,0.0,0.0,100000.0,-0.00386857124977,-0.00207641092129,2.96209545922e-05,1.0,0.0,0.0,0.0,1.0,0.0,0.0,0.0,1.0,0.0342400072608,-0.261331057921,9.71127308607,0.1,0.0,0.0,0.0,0.1,0.0,0.0,0.0,0.1
1405448447025617671,247,1405448447025617671,ardrone_base_link,-0.0393699878178,0.00874360007779,-0.00491240350669,0.999174370072,1.0,0.0,0.0,0.0,1.0,0.0,0.0,0.0,100000.0,-0.0031989782583,-0.00295374449342,2.96206781059e-05,1.0,0.0,0.0,0.0,1.0,0.0,0.0,0.0,1.0,0.0345374777447,-0.262031917274,9.71413004398,0.1,0.0,0.0,0.0,0.1,0.0,0.0,0.0,0.1
1405448447027019256,248,1405448447027019256,ardrone_base_link,-0.0393699878178,0.00874360007779,-0.00491240350669,0.999174370072,1.0,0.0,0.0,0.0,1.0,0.0,0.0,0.0,100000.0,-0.00345084769651,-0.00183948967606,2.96207581414e-05,1.0,0.0,0.0,0.0,1.0,0.0,0.0,0.0,1.0,0.0345762308221,-0.262659724429,9.71249332428,0.1,0.0,0.0,0.0,0.1,0.0,0.0,0.0,0.1
1405448447028444841,249,1405448447028444841,ardrone_base_link,-0.0393700154438,0.0087519763408,-0.00490333980151,0.999174340169,1.0,0.0,0.0,0.0,1.0,0.0,0.0,0.0,100000.0,-0.00210077757947,-0.00328363711014,2.9620823625e-05,1.0,0.0,0.0,0.0,1.0,0.0,0.0,0.0,1.0,0.0348146909382,-0.263010820374,9.71296938658,0.1,0.0,0.0,0.0,0.1,0.0,0.0,0.0,0.1
1405448447029545671,250,1405448447029545671,ardrone_base_link,-0.0393700641177,0.00874325651356,-0.0049036841682,0.999174412902,1.0,0.0,0.0,0.0,1.0,0.0,0.0,0.0,100000.0,0.000302063301206,-0.00592586165294,2.96207217616e-05,1.0,0.0,0.0,0.0,1.0,0.0,0.0,0.0,1.0,0.0338234413415,-0.284873123467,9.68837594986,0.1,0.0,0.0,0.0,0.1,0.0,0.0,0.0,0.1
1405448447031126869,251,1405448447031126869,ardrone_base_link,-0.0393700641177,0.00874325651356,-0.0049036841682,0.999174412902,1.0,0.0,0.0,0.0,1.0,0.0,0.0,0.0,100000.0,-0.00118451751769,-0.00432148110121,2.96207726933e-05,1.0,0.0,0.0,0.0,1.0,0.0,0.0,0.0,1.0,0.0111188703217,-0.306920685619,9.68858681917,0.1,0.0,0.0,0.0,0.1,0.0,0.0,0.0,0.1
1405448447032268027,252,1405448447032268027,ardrone_base_link,-0.0393701404146,0.00874291294866,-0.00489496482933,0.999174455656,1.0,0.0,0.0,0.0,1.0,0.0,0.0,0.0,100000.0,-6.70922454447e-05,-0.00552028045058,2.96207945212e-05,1.0,0.0,0.0,0.0,1.0,0.0,0.0,0.0,1.0,-0.00962111430708,-0.302169609442,9.71786961555,0.1,0.0,0.0,0.0,0.1,0.0,0.0,0.0,0.1
1405448447034225981,253,1405448447034225981,ardrone_base_link,-0.0393613729966,0.00875159006542,-0.00489469683004,0.999174726427,1.0,0.0,0.0,0.0,1.0,0.0,0.0,0.0,100000.0,-0.00135122053325,-0.00422698818147,2.96207435895e-05,1.0,0.0,0.0,0.0,1.0,0.0,0.0,0.0,1.0,-0.00294011793449,-0.277221462503,9.73959382772,0.1,0.0,0.0,0.0,0.1,0.0,0.0,0.0,0.1
1405448447084327117,254,1405448447084327117,ardrone_base_link,-0.0393614008497,0.0087599658666,-0.00488563269953,0.999174696294,1.0,0.0,0.0,0.0,1.0,0.0,0.0,0.0,100000.0,-0.00145419500768,-0.00149388704449,2.96207726933e-05,1.0,0.0,0.0,0.0,1.0,0.0,0.0,0.0,1.0,-0.000304096657783,-0.256851399317,9.73531101942,0.1,0.0,0.0,0.0,0.1,0.0,0.0,0.0,0.1
1405448447085610427,255,1405448447085610427,ardrone_base_link,-0.0393614008497,0.0087599658666,-0.00488563269953,0.999174696294,1.0,0.0,0.0,0.0,1.0,0.0,0.0,0.0,100000.0,-0.00320484442636,-0.0032284129411,2.96207817883e-05,1.0,0.0,0.0,0.0,1.0,0.0,0.0,0.0,1.0,-0.00279700375977,-0.262269254774,9.73192309141,0.1,0.0,0.0,0.0,0.1,0.0,0.0,0.0,0.1
1405448447086774883,256,1405448447086774883,ardrone_base_link,-0.039361227196,0.00877774799428,-0.00489366401947,0.999174507774,1.0,0.0,0.0,0.0,1.0,0.0,0.0,0.0,100000.0,-0.00501713063568,-0.00200225273147,2.96207581414e-05,1.0,0.0,0.0,0.0,1.0,0.0,0.0,0.0,1.0,-0.00200314081449,-0.266222835332,9.75690438747,0.1,0.0,0.0,0.0,0.1,0.0,0.0,0.0,0.1
1405448447088051261,257,1405448447088051261,ardrone_base_link,-0.0393611505951,0.00877809148139,-0.00490238335879,0.999174465032,1.0,0.0,0.0,0.0,1.0,0.0,0.0,0.0,100000.0,-0.00548724783584,-0.00318549689837,2.96207726933e-05,1.0,0.0,0.0,0.0,1.0,0.0,0.0,0.0,1.0,-0.00216674173716,-0.264467647672,9.75616254807,0.1,0.0,0.0,0.0,0.1,0.0,0.0,0.0,0.1
1405448447105091064,258,1405448447105091064,ardrone_base_link,-0.039361227196,0.00877774799428,-0.00489366401947,0.999174507774,1.0,0.0,0.0,0.0,1.0,0.0,0.0,0.0,100000.0,-0.000995120732114,-0.00425849156454,2.96207654173e-05,1.0,0.0,0.0,0.0,1.0,0.0,0.0,0.0,1.0,0.0205494718626,-0.263449151814,9.75257134438,0.1,0.0,0.0,0.0,0.1,0.0,0.0,0.0,0.1
1405448447106077153,259,1405448447106077153,ardrone_base_link,-0.0393613037984,0.00877740448602,-0.00488494416005,0.999174550444,1.0,0.0,0.0,0.0,1.0,0.0,0.0,0.0,100000.0,8.53484962136e-05,-0.00548026012257,2.96207726933e-05,1.0,0.0,0.0,0.0,1.0,0.0,0.0,0.0,1.0,-0.00666536730714,-0.262999283895,9.75250650644,0.1,0.0,0.0,0.0,0.1,0.0,0.0,0.0,0.1
1405448447108518759,260,1405448447108518759,ardrone_base_link,-0.0393613037984,0.00877740448602,-0.00488494416005,0.999174550444,1.0,0.0,0.0,0.0,1.0,0.0,0.0,0.0,100000.0,-0.000231720274314,-0.00428467942402,2.96207654173e-05,1.0,0.0,0.0,0.0,1.0,0.0,0.0,0.0,1.0,-0.00387084921822,-0.262152301893,9.75278688669,0.1,0.0,0.0,0.0,0.1,0.0,0.0,0.0,0.1
1405448447109653670,261,1405448447109653670,ardrone_base_link,-0.0393613803933,0.00877706099757,-0.00487622481998,0.999174593034,1.0,0.0,0.0,0.0,1.0,0.0,0.0,0.0,100000.0,-0.000390302651795,-0.00401720032096,2.96207654173e-05,1.0,0.0,0.0,0.0,1.0,0.0,0.0,0.0,1.0,0.0223443891853,-0.284206380695,9.75082013607,0.1,0.0,0.0,0.0,0.1,0.0,0.0,0.0,0.1
1405448447113516658,262,1405448447113516658,ardrone_base_link,-0.0393613803933,0.00877706099757,-0.00487622481998,0.999174593034,1.0,0.0,0.0,0.0,1.0,0.0,0.0,0.0,100000.0,-0.0019196018111,-0.0048530716449,2.96207726933e-05,1.0,0.0,0.0,0.0,1.0,0.0,0.0,0.0,1.0,0.0188954816666,-0.306894655526,9.74997549057,0.1,0.0,0.0,0.0,0.1,0.0,0.0,0.0,0.1
1405448447115082649,263,1405448447115082649,ardrone_base_link,-0.0393613319364,0.00878578082641,-0.0048758805298,0.999174519988,1.0,0.0,0.0,0.0,1.0,0.0,0.0,0.0,100000.0,-0.00122277857736,-0.00477148592472,2.96207654173e-05,1.0,0.0,0.0,0.0,1.0,0.0,0.0,0.0,1.0,-0.00844738880405,-0.302768812701,9.75089665651,0.1,0.0,0.0,0.0,0.1,0.0,0.0,0.0,0.1
1405448447119934106,264,1405448447119934106,ardrone_base_link,-0.0393613319364,0.00878578082641,-0.0048758805298,0.999174519988,1.0,0.0,0.0,0.0,1.0,0.0,0.0,0.0,100000.0,-0.0004773917899,-0.00449975999072,2.96207654173e-05,1.0,0.0,0.0,0.0,1.0,0.0,0.0,0.0,1.0,0.0163115704898,-0.300744324923,9.75037736893,0.1,0.0,0.0,0.0,0.1,0.0,0.0,0.0,0.1
1405448447121184845,265,1405448447121184845,ardrone_base_link,-0.0393613803933,0.00877706099757,-0.00487622481998,0.999174593034,1.0,0.0,0.0,0.0,1.0,0.0,0.0,0.0,100000.0,-0.000851740594953,-0.00463140942156,2.96207726933e-05,1.0,0.0,0.0,0.0,1.0,0.0,0.0,0.0,1.0,0.0204914882779,-0.303182318807,9.75025061369,0.1,0.0,0.0,0.0,0.1,0.0,0.0,0.0,0.1
1405448447167433956,266,1405448447167433956,ardrone_base_link,-0.0393613319364,0.00878578082641,-0.0048758805298,0.999174519988,1.0,0.0,0.0,0.0,1.0,0.0,0.0,0.0,100000.0,-0.000976700801402,-0.0045435866341,2.96207654173e-05,1.0,0.0,0.0,0.0,1.0,0.0,0.0,0.0,1.0,-0.00920818091836,-0.30359060429,9.75094455481,0.1,0.0,0.0,0.0,0.1,0.0,0.0,0.0,0.1
1405448447168553209,267,1405448447168553209,ardrone_base_link,-0.0393612834794,0.00879450013487,-0.00487553625977,0.999174446869,1.0,0.0,0.0,0.0,1.0,0.0,0.0,0.0,100000.0,-0.00095076370053,-0.00202402682044,2.96207654173e-05,1.0,0.0,0.0,0.0,1.0,0.0,0.0,0.0,1.0,-0.0053422602592,-0.281141747907,9.75191069841,0.1,0.0,0.0,0.0,0.1,0.0,0.0,0.0,0.1
1405448447169989443,268,1405448447169989443,ardrone_base_link,-0.0393524556085,0.00878642510236,-0.00489339643531,0.999174778326,1.0,0.0,0.0,0.0,1.0,0.0,0.0,0.0,100000.0,-0.0112452208996,-0.0105873448774,0.0027979509905,1.0,0.0,0.0,0.0,1.0,0.0,0.0,0.0,1.0,-0.00112148641347,-0.257958609238,9.72943530083,0.1,0.0,0.0,0.0,0.1,0.0,0.0,0.0,0.1
1405448447171330389,269,1405448447171330389,ardrone_base_link,-0.0393608383207,0.00875399449062,-0.00495573273051,0.999174425564,1.0,0.0,0.0,0.0,1.0,0.0,0.0,0.0,100000.0,-0.025477303192,-0.016913190484,-0.00507922843099,1.0,0.0,0.0,0.0,1.0,0.0,0.0,0.0,1.0,-0.00325836195261,-0.285627923161,9.72869579792,0.1,0.0,0.0,0.0,0.1,0.0,0.0,0.0,0.1
1405448447172736070,270,1405448447172736070,ardrone_base_link,-0.0393431403578,0.00874656149154,-0.00499110758186,0.999175011604,1.0,0.0,0.0,0.0,1.0,0.0,0.0,0.0,100000.0,-0.0160912834108,-0.0131089882925,0.00683346670121,1.0,0.0,0.0,0.0,1.0,0.0,0.0,0.0,1.0,-0.0243781157304,-0.287957762554,9.75775136948,0.1,0.0,0.0,0.0,0.1,0.0,0.0,0.0,0.1
1405448447174030453,271,1405448447174030453,ardrone_base_link,-0.039334623454,0.00873711211351,-0.0049740892563,0.999175514465,1.0,0.0,0.0,0.0,1.0,0.0,0.0,0.0,100000.0,0.0021473034285,-0.0100527452305,0.00487814377993,1.0,0.0,0.0,0.0,1.0,0.0,0.0,0.0,1.0,-0.0244285855442,-0.233359221742,9.7339692831,0.1,0.0,0.0,0.0,0.1,0.0,0.0,0.0,0.1
1405448447175205407,272,1405448447175205407,ardrone_base_link,-0.0393263963358,0.0087688578387,-0.00489431439852,0.999175954159,1.0,0.0,0.0,0.0,1.0,0.0,0.0,0.0,100000.0,0.0261357892305,0.0099250394851,0.000757830217481,1.0,0.0,0.0,0.0,1.0,0.0,0.0,0.0,1.0,0.023910238035,-0.255571854115,9.72745628357,0.1,0.0,0.0,0.0,0.1,0.0,0.0,0.0,0.1
1405448447177450807,273,1405448447177450807,ardrone_base_link,-0.039318646738,0.00882401846913,-0.00474375254276,0.999176499688,1.0,0.0,0.0,0.0,1.0,0.0,0.0,0.0,100000.0,0.0593319609761,0.0233009904623,0.00566382706165,1.0,0.0,0.0,0.0,1.0,0.0,0.0,0.0,1.0,0.0396141833626,-0.306216138974,9.70843482018,0.1,0.0,0.0,0.0,0.1,0.0,0.0,0.0,0.1
1405448447178634719,274,1405448447178634719,ardrone_base_link,-0.0393282119967,0.00886285220683,-0.00461988322665,0.999176359944,1.0,0.0,0.0,0.0,1.0,0.0,0.0,0.0,100000.0,0.0467862412333,0.0083593018353,-0.00516443466768,1.0,0.0,0.0,0.0,1.0,0.0,0.0,0.0,1.0,-0.0160461493302,-0.274221685901,9.68556104898,0.1,0.0,0.0,0.0,0.1,0.0,0.0,0.0,0.1
1405448447217823780,275,1405448447217823780,ardrone_base_link,-0.0393364975089,0.00891589551033,-0.00463518039965,0.999175491029,1.0,0.0,0.0,0.0,1.0,0.0,0.0,0.0,100000.0,-0.00757342670113,0.012269642204,-0.00172863551416,1.0,0.0,0.0,0.0,1.0,0.0,0.0,0.0,1.0,-0.0585088778287,-0.320170842856,9.71484150887,0.1,0.0,0.0,0.0,0.1,0.0,0.0,0.0,0.1
1405448447219082452,276,1405448447219082452,ardrone_base_link,-0.0393621296946,0.00890132627213,-0.00470539122712,0.999174283311,1.0,0.0,0.0,0.0,1.0,0.0,0.0,0.0,100000.0,-0.0199366826564,-0.0109448432922,-0.0116113480181,1.0,0.0,0.0,0.0,1.0,0.0,0.0,0.0,1.0,0.0238472460303,-0.427539356053,9.71049269438,0.1,0.0,0.0,0.0,0.1,0.0,0.0,0.0,0.1
1405448447220369211,277,1405448447220369211,ardrone_base_link,-0.0393611470697,0.00884612951911,-0.00485603194025,0.999174091461,1.0,0.0,0.0,0.0,1.0,0.0,0.0,0.0,100000.0,-0.0567955449224,-0.0221366174519,-0.00127887912095,1.0,0.0,0.0,0.0,1.0,0.0,0.0,0.0,1.0,0.0798522127792,-0.377938629687,9.70545928478,0.1,0.0,0.0,0.0,0.1,0.0,0.0,0.0,0.1
1405448447223613247,278,1405448447223613247,ardrone_base_link,-0.0393865105707,0.00886678866922,-0.00493358631917,0.999172528931,1.0,0.0,0.0,0.0,1.0,0.0,0.0,0.0,100000.0,-0.0344039015472,0.000668947584927,-0.00917269103229,1.0,0.0,0.0,0.0,1.0,0.0,0.0,0.0,1.0,-0.000175013349872,-0.280473873392,9.73852604628,0.1,0.0,0.0,0.0,0.1,0.0,0.0,0.0,0.1
1405448447224721869,279,1405448447224721869,ardrone_base_link,-0.0393952783879,0.00885811243138,-0.00493385352902,0.999172258909,1.0,0.0,0.0,0.0,1.0,0.0,0.0,0.0,100000.0,0.000739830138627,-0.0109062194824,-0.00477679260075,1.0,0.0,0.0,0.0,1.0,0.0,0.0,0.0,1.0,-0.0235511742532,-0.31820077002,9.78241606951,0.1,0.0,0.0,0.0,0.1,0.0,0.0,0.0,0.1
1405448447225998626,280,1405448447225998626,ardrone_base_link,-0.0393689673688,0.00885867038093,-0.00495152407262,0.999173203592,1.0,0.0,0.0,0.0,1.0,0.0,0.0,0.0,100000.0,-0.00337955122814,-0.00526018580422,0.0116584161296,1.0,0.0,0.0,0.0,1.0,0.0,0.0,0.0,1.0,0.0109213902615,-0.38447419107,9.77204784155,0.1,0.0,0.0,0.0,0.1,0.0,0.0,0.0,0.1
1405448447227403917,281,1405448447227403917,ardrone_base_link,-0.0393692362922,0.00889148672923,-0.00489783015054,0.999173166152,1.0,0.0,0.0,0.0,1.0,0.0,0.0,0.0,100000.0,0.0194574035704,0.01037671417,0.000769178732298,1.0,0.0,0.0,0.0,1.0,0.0,0.0,0.0,1.0,0.0470689073205,-0.329496552795,9.7406347394,0.1,0.0,0.0,0.0,0.1,0.0,0.0,0.0,0.1
1405448447228636842,282,1405448447228636842,ardrone_base_link,-0.0393347156326,0.00888122340089,-0.00486360669715,0.999174784183,1.0,0.0,0.0,0.0,1.0,0.0,0.0,0.0,100000.0,0.014405160211,-0.00532630179077,0.0132153816521,1.0,0.0,0.0,0.0,1.0,0.0,0.0,0.0,1.0,0.0568978505209,-0.327423345298,9.74428844452,0.1,0.0,0.0,0.0,0.1,0.0,0.0,0.0,0.1
1405448447229829320,283,1405448447229829320,ardrone_base_link,-0.0393263362553,0.00888818434725,-0.00481974297994,0.999175264672,1.0,0.0,0.0,0.0,1.0,0.0,0.0,0.0,100000.0,0.0210224781185,-0.000869493000209,0.0025302702561,1.0,0.0,0.0,0.0,1.0,0.0,0.0,0.0,1.0,0.0207178620156,-0.378983995318,9.74677448273,0.1,0.0,0.0,0.0,0.1,0.0,0.0,0.0,0.1
1405448447231088995,284,1405448447231088995,ardrone_base_link,-0.0393438631523,0.00891339687953,-0.00479239694947,0.99917448162,1.0,0.0,0.0,0.0,1.0,0.0,0.0,0.0,100000.0,0.00909441243857,0.00796040706336,-0.00513993576169,1.0,0.0,0.0,0.0,1.0,0.0,0.0,0.0,1.0,0.0223085202277,-0.307865508646,9.77163720131,0.1,0.0,0.0,0.0,0.1,0.0,0.0,0.0,0.1
1405448447232433478,285,1405448447232433478,ardrone_base_link,-0.0393267841247,0.00890322116367,-0.00475801856446,0.999175409006,1.0,0.0,0.0,0.0,1.0,0.0,0.0,0.0,100000.0,0.0129606612027,-0.0102042909712,0.00521075166762,1.0,0.0,0.0,0.0,1.0,0.0,0.0,0.0,1.0,-0.0122573948465,-0.247209348902,9.79923129082,0.1,0.0,0.0,0.0,0.1,0.0,0.0,0.0,0.1
1405448447235247674,286,1405448447235247674,ardrone_base_link,-0.0393524743584,0.0089054062359,-0.00481010255691,0.999174128676,1.0,0.0,0.0,0.0,1.0,0.0,0.0,0.0,100000.0,-0.017974620685,-0.00371658452787,-0.0105075640604,1.0,0.0,0.0,0.0,1.0,0.0,0.0,0.0,1.0,0.00777481219266,-0.370250442624,9.76431869268,0.1,0.0,0.0,0.0,0.1,0.0,0.0,0.0,0.1
1405448447266776536,287,1405448447266776536,ardrone_base_link,-0.0393604297832,0.00893435453841,-0.00487874713519,0.999173224072,1.0,0.0,0.0,0.0,1.0,0.0,0.0,0.0,100000.0,-0.0214694030583,0.00981104373932,-0.00319599406794,1.0,0.0,0.0,0.0,1.0,0.0,0.0,0.0,1.0,0.109124896489,-0.453895975649,9.73297977448,0.1,0.0,0.0,0.0,0.1,0.0,0.0,0.0,0.1
1405448447267915858,288,1405448447267915858,ardrone_base_link,-0.0393519787847,0.0088990902948,-0.00487148264027,0.999173907093,1.0,0.0,0.0,0.0,1.0,0.0,0.0,0.0,100000.0,0.00126124755479,-0.0118340579793,0.0022683897987,1.0,0.0,0.0,0.0,1.0,0.0,0.0,0.0,1.0,0.1044418253,-0.277172377706,9.74902803898,0.1,0.0,0.0,0.0,0.1,0.0,0.0,0.0,0.1
1405448447269417029,289,1405448447269417029,ardrone_base_link,-0.039377575444,0.00891871875785,-0.00492287722251,0.999172471742,1.0,0.0,0.0,0.0,1.0,0.0,0.0,0.0,100000.0,-0.0237080045044,0.00311960792169,-0.0107646435499,1.0,0.0,0.0,0.0,1.0,0.0,0.0,0.0,1.0,0.00062827434158,-0.253626588359,9.77865546942,0.1,0.0,0.0,0.0,0.1,0.0,0.0,0.0,0.1
1405448447270636147,290,1405448447270636147,ardrone_base_link,-0.0393597772271,0.0089287260631,-0.00495756641724,0.999172912124,1.0,0.0,0.0,0.0,1.0,0.0,0.0,0.0,100000.0,-0.00926283560693,-0.00397350173444,0.0101708453149,1.0,0.0,0.0,0.0,1.0,0.0,0.0,0.0,1.0,-0.0151744378265,-0.423209416121,9.79216862917,0.1,0.0,0.0,0.0,0.1,0.0,0.0,0.0,0.1
1405448447272085783,291,1405448447272085783,ardrone_base_link,-0.0393512381043,0.0088428623685,-0.00499596430689,0.999173820807,1.0,0.0,0.0,0.0,1.0,0.0,0.0,0.0,100000.0,-0.0113829281181,-0.0356793440878,0.00256389705464,1.0,0.0,0.0,0.0,1.0,0.0,0.0,0.0,1.0,0.116135443188,-0.35190744102,9.76290686131,0.1,0.0,0.0,0.0,0.1,0.0,0.0,0.0,0.1
1405448447273275107,292,1405448447273275107,ardrone_base_link,-0.039376858426,0.00884539859541,-0.00505676908104,0.999172483123,1.0,0.0,0.0,0.0,1.0,0.0,0.0,0.0,100000.0,-0.0291322134435,0.00405892264098,-0.0104128662497,1.0,0.0,0.0,0.0,1.0,0.0,0.0,0.0,1.0,0.132609197497,-0.24535372816,9.7176920414,0.1,0.0,0.0,0.0,0.1,0.0,0.0,0.0,0.1
1405448447275938610,293,1405448447275938610,ardrone_base_link,-0.0393508480502,0.00881910777591,-0.00505803331863,0.999173733839,1.0,0.0,0.0,0.0,1.0,0.0,0.0,0.0,100000.0,-0.000252559082583,-0.016439691186,0.00912453513592,1.0,0.0,0.0,0.0,1.0,0.0,0.0,0.0,1.0,0.0115928071784,-0.330491318554,9.72426754236,0.1,0.0,0.0,0.0,0.1,0.0,0.0,0.0,0.1
1405448447277519931,294,1405448447277519931,ardrone_base_link,-0.0393599285995,0.00880905871547,-0.00502342276582,0.999173639429,1.0,0.0,0.0,0.0,1.0,0.0,0.0,0.0,100000.0,0.0139604248106,-0.00799382571131,-0.00486230151728,1.0,0.0,0.0,0.0,1.0,0.0,0.0,0.0,1.0,-0.00435091739637,-0.334920194745,9.77872498035,0.1,0.0,0.0,0.0,0.1,0.0,0.0,0.0,0.1
1405448447278762433,295,1405448447278762433,ardrone_base_link,-0.0393686798837,0.00884294957774,-0.00499580994329,0.999173133731,1.0,0.0,0.0,0.0,1.0,0.0,0.0,0.0,100000.0,0.00317064952105,0.0117253689095,-0.00183089938946,1.0,0.0,0.0,0.0,1.0,0.0,0.0,0.0,1.0,0.0389821184799,-0.179000646994,9.78013272285,0.1,0.0,0.0,0.0,0.1,0.0,0.0,0.0,0.1
1405448447319619540,296,1405448447319619540,ardrone_base_link,-0.0393344106529,0.00881455720225,-0.00494483423415,0.999174987845,1.0,0.0,0.0,0.0,1.0,0.0,0.0,0.0,100000.0,0.012566880323,-0.015929158777,0.0119876498356,1.0,0.0,0.0,0.0,1.0,0.0,0.0,0.0,1.0,0.0314893122762,-0.213474475592,9.74568976164,0.1,0.0,0.0,0.0,0.1,0.0,0.0,0.0,0.1
1405448447320621539,297,1405448447320621539,ardrone_base_link,-0.0393522125327,0.00883002216847,-0.00489167543513,0.999174411997,1.0,0.0,0.0,0.0,1.0,0.0,0.0,0.0,100000.0,0.0235802717507,0.00465815328062,-0.00649023242295,1.0,0.0,0.0,0.0,1.0,0.0,0.0,0.0,1.0,0.0682912643999,-0.361499256641,9.74308456182,0.1,0.0,0.0,0.0,0.1,0.0,0.0,0.0,0.1
1405448447321814075,298,1405448447321814075,ardrone_base_link,-0.0393609071507,0.0088216885337,-0.00490066197667,0.9991740991,1.0,0.0,0.0,0.0,1.0,0.0,0.0,0.0,100000.0,-0.00294321076944,-0.00188291375525,-0.00245190761052,1.0,0.0,0.0,0.0,1.0,0.0,0.0,0.0,1.0,0.0967272887006,-0.284053704888,9.75088906288,0.1,0.0,0.0,0.0,0.1,0.0,0.0,0.0,0.1
1405448447324608812,299,1405448447324608812,ardrone_base_link,-0.0393440330345,0.00882757609697,-0.0048307160457,0.999175052304,1.0,0.0,0.0,0.0,1.0,0.0,0.0,0.0,100000.0,0.018675647676,0.00111907243263,0.00655773002654,1.0,0.0,0.0,0.0,1.0,0.0,0.0,0.0,1.0,0.024275784241,-0.207645468786,9.75473085642,0.1,0.0,0.0,0.0,0.1,0.0,0.0,0.0,0.1
1405448447325618577,300,1405448447325618577,ardrone_base_link,-0.0393527518575,0.00882761824957,-0.00483063901589,0.999174708949,1.0,0.0,0.0,0.0,1.0,0.0,0.0,0.0,100000.0,0.00134175946005,-0.00686554331332,-0.00331671256572,1.0,0.0,0.0,0.0,1.0,0.0,0.0,0.0,1.0,-0.0185824371642,-0.309465099871,9.75166010857,0.1,0.0,0.0,0.0,0.1,0.0,0.0,0.0,0.1
1405448447326983533,301,1405448447326983533,ardrone_base_link,-0.0393348519468,0.00882959351997,-0.00488310967177,0.999175141274,1.0,0.0,0.0,0.0,1.0,0.0,0.0,0.0,100000.0,-0.0219346135855,-0.00284899096005,0.00464747659862,1.0,0.0,0.0,0.0,1.0,0.0,0.0,0.0,1.0,0.0927798232064,-0.295450705662,9.77333350182,0.1,0.0,0.0,0.0,0.1,0.0,0.0,0.0,0.1
1405448447328150453,302,1405448447328150453,ardrone_base_link,-0.0393176937464,0.00881975913864,-0.00485744962102,0.999176028531,1.0,0.0,0.0,0.0,1.0,0.0,0.0,0.0,100000.0,0.00301040196791,0.00109067396261,0.00788780115545,1.0,0.0,0.0,0.0,1.0,0.0,0.0,0.0,1.0,0.121414285898,-0.185713472217,9.77759236097,0.1,0.0,0.0,0.0,0.1,0.0,0.0,0.0,0.1
1405448447329507727,303,1405448447329507727,ardrone_base_link,-0.0393433602295,0.00881357033861,-0.00491859877442,0.999174773686,1.0,0.0,0.0,0.0,1.0,0.0,0.0,0.0,100000.0,-0.023287512362,-0.0130463885143,-0.0114154610783,1.0,0.0,0.0,0.0,1.0,0.0,0.0,0.0,1.0,-0.0195626168977,-0.352989679575,9.74388481379,0.1,0.0,0.0,0.0,0.1,0.0,0.0,0.0,0.1
1405448447331037578,304,1405448447331037578,ardrone_base_link,-0.0393428349868,0.00886691671459,-0.00494269254742,0.999174203487,1.0,0.0,0.0,0.0,1.0,0.0,0.0,0.0,100000.0,-0.00409331684932,0.0146066555753,0.00231202365831,1.0,0.0,0.0,0.0,1.0,0.0,0.0,0.0,1.0,-0.0157402489567,-0.448883266002,9.76513997316,0.1,0.0,0.0,0.0,0.1,0.0,0.0,0.0,0.1
1405448447332179600,305,1405448447332179600,ardrone_base_link,-0.0393431785459,0.00880588104093,-0.00494510144162,0.999174717821,1.0,0.0,0.0,0.0,1.0,0.0,0.0,0.0,100000.0,-0.0101513247937,-0.0256351027638,-0.00263581238687,1.0,0.0,0.0,0.0,1.0,0.0,0.0,0.0,1.0,0.0603715947829,-0.16918679066,9.80367298126,0.1,0.0,0.0,0.0,0.1,0.0,0.0,0.0,0.1
1405448447333639864,306,1405448447333639864,ardrone_base_link,-0.0393780794075,0.00878895869784,-0.00495420222611,0.999173446879,1.0,0.0,0.0,0.0,1.0,0.0,0.0,0.0,100000.0,-0.0123082688078,-0.0109392162412,-0.0123390574008,1.0,0.0,0.0,0.0,1.0,0.0,0.0,0.0,1.0,0.0239232325461,-0.116036808118,9.77516356707,0.1,0.0,0.0,0.0,0.1,0.0,0.0,0.0,0.1
1405448447334772142,307,1405448447334772142,ardrone_base_link,-0.0393516886983,0.00878985921888,-0.0049805908747,0.999174347492,1.0,0.0,0.0,0.0,1.0,0.0,0.0,0.0,100000.0,-0.010969048366,-0.00628641527146,0.0108049754053,1.0,0.0,0.0,0.0,1.0,0.0,0.0,0.0,1.0,-0.0366972270887,-0.368723282963,9.76242203712,0.1,0.0,0.0,0.0,0.1,0.0,0.0,0.0,0.1
1405448447336182592,308,1405448447336182592,ardrone_base_link,-0.039343041492,0.0087640006351,-0.00499041931253,0.999174866124,1.0,0.0,0.0,0.0,1.0,0.0,0.0,0.0,100000.0,0.00268593523651,-0.0166939366609,0.00342404725961,1.0,0.0,0.0,0.0,1.0,0.0,0.0,0.0,1.0,0.0154371927725,-0.371871719509,9.76751619577,0.1,0.0,0.0,0.0,0.1,0.0,0.0,0.0,0.1
1405448447339234400,309,1405448447339234400,ardrone_base_link,-0.0393258456665,0.00881382767668,-0.00492747193613,0.999175417194,1.0,0.0,0.0,0.0,1.0,0.0,0.0,0.0,100000.0,0.0164296608418,0.0197546388954,0.00523425219581,1.0,0.0,0.0,0.0,1.0,0.0,0.0,0.0,1.0,0.0458456252702,-0.191196384653,9.74944685698,0.1,0.0,0.0,0.0,0.1,0.0,0.0,0.0,0.1
1405448447340405107,310,1405448447340405107,ardrone_base_link,-0.0392912337367,0.00884647622101,-0.00487408825321,0.999176752168,1.0,0.0,0.0,0.0,1.0,0.0,0.0,0.0,100000.0,0.0155069623142,0.00484364945441,0.0146232955158,1.0,0.0,0.0,0.0,1.0,0.0,0.0,0.0,1.0,-0.0393788081594,-0.257214123011,9.74952396154,0.1,0.0,0.0,0.0,0.1,0.0,0.0,0.0,0.1
1405448447376456176,311,1405448447376456176,ardrone_base_link,-0.0392916302296,0.00887023455738,-0.00481202121105,0.999176826785,1.0,0.0,0.0,0.0,1.0,0.0,0.0,0.0,100000.0,0.0281601306051,0.00460097705945,-0.00180056318641,1.0,0.0,0.0,0.0,1.0,0.0,0.0,0.0,1.0,-0.0182860801695,-0.381812440604,9.74840068817,0.1,0.0,0.0,0.0,0.1,0.0,0.0,0.0,0.1
1405448447377640300,312,1405448447377640300,ardrone_base_link,-0.0393003238433,0.0088618996771,-0.00482100688602,0.999176515523,1.0,0.0,0.0,0.0,1.0,0.0,0.0,0.0,100000.0,-0.00817093811929,-0.00536241848022,-0.0039583472535,1.0,0.0,0.0,0.0,1.0,0.0,0.0,0.0,1.0,0.0497013784945,-0.207841132581,9.75347031355,0.1,0.0,0.0,0.0,0.1,0.0,0.0,0.0,0.1
1405448447379433321,313,1405448447379433321,ardrone_base_link,-0.0393175971133,0.00883719830096,-0.0048567618206,0.999175881588,1.0,0.0,0.0,0.0,1.0,0.0,0.0,0.0,100000.0,-0.0195309109986,-0.0151337124407,-0.00575182819739,1.0,0.0,0.0,0.0,1.0,0.0,0.0,0.0,1.0,0.0177856260678,-0.228578501195,9.73095986843,0.1,0.0,0.0,0.0,0.1,0.0,0.0,0.0,0.1
1405448447380422100,314,1405448447380422100,ardrone_base_link,-0.0393431294754,0.00881460035065,-0.00494475731794,0.999174644574,1.0,0.0,0.0,0.0,1.0,0.0,0.0,0.0,100000.0,-0.0241935010999,-0.020780229941,-0.011705509387,1.0,0.0,0.0,0.0,1.0,0.0,0.0,0.0,1.0,-0.0573764364235,-0.527406200767,9.74267041683,0.1,0.0,0.0,0.0,0.1,0.0,0.0,0.0,0.1
1405448447381792734,315,1405448447381792734,ardrone_base_link,-0.0393601866184,0.00881640408673,-0.00498820063623,0.999173740939,1.0,0.0,0.0,0.0,1.0,0.0,0.0,0.0,100000.0,-0.014524102211,-0.00353303807788,-0.00446905102581,1.0,0.0,0.0,0.0,1.0,0.0,0.0,0.0,1.0,0.00515014228877,-0.368756103516,9.80086801052,0.1,0.0,0.0,0.0,0.1,0.0,0.0,0.0,0.1
1405448447383060300,316,1405448447383060300,ardrone_base_link,-0.0393522328689,0.0088129264415,-0.0049010831884,0.999174516028,1.0,0.0,0.0,0.0,1.0,0.0,0.0,0.0,100000.0,0.0203637424856,0.00114511605352,0.00172225013375,1.0,0.0,0.0,0.0,1.0,0.0,0.0,0.0,1.0,0.0894133800641,-0.0685364100151,9.78061228991,0.1,0.0,0.0,0.0,0.1,0.0,0.0,0.0,0.1
1405448447384507002,317,1405448447384507002,ardrone_base_link,-0.0393348320539,0.00884668888991,-0.00487370223898,0.999175036773,1.0,0.0,0.0,0.0,1.0,0.0,0.0,0.0,100000.0,0.0096994638443,0.0077499570325,0.00564747303724,1.0,0.0,0.0,0.0,1.0,0.0,0.0,0.0,1.0,-0.00603399151005,-0.297218196467,9.74093147516,0.1,0.0,0.0,0.0,0.1,0.0,0.0,0.0,0.1
1405448447385857753,318,1405448447385857753,ardrone_base_link,-0.0393258515631,0.00890733941878,-0.00486265226583,0.999174905267,1.0,0.0,0.0,0.0,1.0,0.0,0.0,0.0,100000.0,0.0129659567028,0.0154939945787,0.0061572054401,1.0,0.0,0.0,0.0,1.0,0.0,0.0,0.0,1.0,-0.0223868751898,-0.479879923165,9.7418432951,0.1,0.0,0.0,0.0,0.1,0.0,0.0,0.0,0.1
1405448447387090206,319,1405448447387090206,ardrone_base_link,-0.0393172489629,0.00887276230649,-0.00487282493294,0.999175501902,1.0,0.0,0.0,0.0,1.0,0.0,0.0,0.0,100000.0,-0.0102668693289,-0.0115626100451,0.00280200107954,1.0,0.0,0.0,0.0,1.0,0.0,0.0,0.0,1.0,0.0922996902838,-0.230273231864,9.75257601738,0.1,0.0,0.0,0.0,0.1,0.0,0.0,0.0,0.1
1405448447388319834,320,1405448447388319834,ardrone_base_link,-0.0393254542169,0.00888358322457,-0.00492472011975,0.999174828412,1.0,0.0,0.0,0.0,1.0,0.0,0.0,0.0,100000.0,-0.0253790915012,-0.00213386793621,-0.00332587957382,1.0,0.0,0.0,0.0,1.0,0.0,0.0,0.0,1.0,0.0375611190684,-0.218507209793,9.72965317965,0.1,0.0,0.0,0.0,0.1,0.0,0.0,0.0,0.1
1405448447441766202,321,1405448447441766202,ardrone_base_link,-0.0393337929193,0.00891081440533,-0.00494976896064,0.999174133927,1.0,0.0,0.0,0.0,1.0,0.0,0.0,0.0,100000.0,-0.00360036687925,-0.000105990096927,-0.00401798496023,1.0,0.0,0.0,0.0,1.0,0.0,0.0,0.0,1.0,-0.093865895085,-0.431683325022,9.74683873653,0.1,0.0,0.0,0.0,0.1,0.0,0.0,0.0,0.1
1405448447443019508,322,1405448447443019508,ardrone_base_link,-0.0393423985822,0.00887735318394,-0.00498594559664,0.999173913101,1.0,0.0,0.0,0.0,1.0,0.0,0.0,0.0,100000.0,-0.0175700988621,-0.017777543515,-0.00466731190681,1.0,0.0,0.0,0.0,1.0,0.0,0.0,0.0,1.0,0.00198582582816,-0.27824963294,9.80384938717,0.1,0.0,0.0,0.0,0.1,0.0,0.0,0.0,0.1
1405448447444628797,323,1405448447444628797,ardrone_base_link,-0.0393512305463,0.00891090078757,-0.00494961344794,0.99917344732,1.0,0.0,0.0,0.0,1.0,0.0,0.0,0.0,100000.0,0.00343253696337,0.0139187192544,-0.00292600179091,1.0,0.0,0.0,0.0,1.0,0.0,0.0,0.0,1.0,0.0910929691046,-0.135640334338,9.77667002678,0.1,0.0,0.0,0.0,0.1,0.0,0.0,0.0,0.1
1405448447445737563,324,1405448447445737563,ardrone_base_link,-0.0393514841189,0.00889277486593,-0.00493286321334,0.999173681656,1.0,0.0,0.0,0.0,1.0,0.0,0.0,0.0,100000.0,0.00973303522915,-0.01221909374,-0.000567431561649,1.0,0.0,0.0,0.0,1.0,0.0,0.0,0.0,1.0,0.0128185318317,-0.383405423909,9.73593895435,0.1,0.0,0.0,0.0,0.1,0.0,0.0,0.0,0.1
1405448447447064693,325,1405448447447064693,ardrone_base_link,-0.0393597628923,0.0088777836933,-0.0049945099591,0.999173182633,1.0,0.0,0.0,0.0,1.0,0.0,0.0,0.0,100000.0,-0.016773879528,-0.0127564314753,-0.00325933098793,1.0,0.0,0.0,0.0,1.0,0.0,0.0,0.0,1.0,-0.0177609422011,-0.457392514497,9.766223526,0.1,0.0,0.0,0.0,0.1,0.0,0.0,0.0,0.1
1405448447448225506,326,1405448447448225506,ardrone_base_link,-0.0393422501486,0.00890351108847,-0.00498491320575,0.999173691349,1.0,0.0,0.0,0.0,1.0,0.0,0.0,0.0,100000.0,-0.00278905918822,0.00473545398563,0.00562248192728,1.0,0.0,0.0,0.0,1.0,0.0,0.0,0.0,1.0,0.0246212420054,-0.223991345242,9.80116941929,0.1,0.0,0.0,0.0,0.1,0.0,0.0,0.0,0.1
1405448447449417322,327,1405448447449417322,ardrone_base_link,-0.0393336187157,0.00883508563228,-0.00502262122319,0.999174449722,1.0,0.0,0.0,0.0,1.0,0.0,0.0,0.0,100000.0,-0.0172205045819,-0.0300388056785,0.00407846644521,1.0,0.0,0.0,0.0,1.0,0.0,0.0,0.0,1.0,0.020449734712,-0.277868983895,9.76817100048,0.1,0.0,0.0,0.0,0.1,0.0,0.0,0.0,0.1
1405448447450846686,328,1405448447450846686,ardrone_base_link,-0.0393328274252,0.00888108539375,-0.00508193678723,0.999173773138,1.0,0.0,0.0,0.0,1.0,0.0,0.0,0.0,100000.0,-0.0152046270669,0.00833991914988,-0.00121831707656,1.0,0.0,0.0,0.0,1.0,0.0,0.0,0.0,1.0,-0.0375367478002,-0.479515355825,9.75757379532,0.1,0.0,0.0,0.0,0.1,0.0,0.0,0.0,0.1
1405448447451982933,329,1405448447451982933,ardrone_base_link,-0.0393331874174,0.00887099258687,-0.00504740301049,0.999174023672,1.0,0.0,0.0,0.0,1.0,0.0,0.0,0.0,100000.0,0.013264448382,-0.00869944505394,0.000301738764392,1.0,0.0,0.0,0.0,1.0,0.0,0.0,0.0,1.0,-0.00886049104156,-0.292446000502,9.77284517288,0.1,0.0,0.0,0.0,0.1,0.0,0.0,0.0,0.1
1405448447453389720,330,1405448447453389720,ardrone_base_link,-0.0393509843718,0.00886098778867,-0.00501271507968,0.999173586326,1.0,0.0,0.0,0.0,1.0,0.0,0.0,0.0,100000.0,0.00361443776637,-0.00397887267172,-0.00661846157163,1.0,0.0,0.0,0.0,1.0,0.0,0.0,0.0,1.0,0.047420505248,-0.153625814617,9.75202986002,0.1,0.0,0.0,0.0,0.1,0.0,0.0,0.0,0.1
1405448447454691515,331,1405448447454691515,ardrone_base_link,-0.0393508416974,0.00891261780062,-0.00499321061421,0.999173230401,1.0,0.0,0.0,0.0,1.0,0.0,0.0,0.0,100000.0,0.0110322516412,0.00958330929279,0.00110499525908,1.0,0.0,0.0,0.0,1.0,0.0,0.0,0.0,1.0,-0.0583890818991,-0.408334331214,9.76693031788,0.1,0.0,0.0,0.0,0.1,0.0,0.0,0.0,0.1
1405448447456311568,332,1405448447456311568,ardrone_base_link,-0.0393425365636,0.0088002517177,-0.00502392066686,0.999174399496,1.0,0.0,0.0,0.0,1.0,0.0,0.0,0.0,100000.0,-0.00480889808387,-0.0525945015252,0.00171131733805,1.0,0.0,0.0,0.0,1.0,0.0,0.0,0.0,1.0,-0.0607488714159,-0.391268775612,9.79583985806,0.1,0.0,0.0,0.0,0.1,0.0,0.0,0.0,0.1
1405448447539124939,333,1405448447539124939,ardrone_base_link,-0.0393509520583,0.00882714026165,-0.00504024992544,0.999173748678,1.0,0.0,0.0,0.0,1.0,0.0,0.0,0.0,100000.0,-0.0138709573075,0.00574196083471,-0.00165145331994,1.0,0.0,0.0,0.0,1.0,0.0,0.0,0.0,1.0,0.0143546883948,-0.205761006847,9.79512196779,0.1,0.0,0.0,0.0,0.1,0.0,0.0,0.0,0.1
1405448447540447787,334,1405448447540447787,ardrone_base_link,-0.0392990881889,0.0087484014242,-0.00504380585672,0.999176464476,1.0,0.0,0.0,0.0,1.0,0.0,0.0,0.0,100000.0,0.00280492310412,-0.0408434607089,0.0175370797515,1.0,0.0,0.0,0.0,1.0,0.0,0.0,0.0,1.0,-0.0672542910092,-0.348440144956,9.74119316339,0.1,0.0,0.0,0.0,0.1,0.0,0.0,0.0,0.1
1405448447542061015,335,1405448447542061015,ardrone_base_link,-0.0392723166651,0.00875101111783,-0.00511379085923,0.999177138495,1.0,0.0,0.0,0.0,1.0,0.0,0.0,0.0,100000.0,-0.0252838749439,-0.011666951701,0.0112238479778,1.0,0.0,0.0,0.0,1.0,0.0,0.0,0.0,1.0,-0.0752903567627,-0.416535270959,9.74054011106,0.1,0.0,0.0,0.0,0.1,0.0,0.0,0.0,0.1
1405448447543383910,336,1405448447543383910,ardrone_base_link,-0.0392379293275,0.00880810249282,-0.00501577961696,0.99917848465,1.0,0.0,0.0,0.0,1.0,0.0,0.0,0.0,100000.0,0.0290791876614,0.0270579084754,0.0139407133684,1.0,0.0,0.0,0.0,1.0,0.0,0.0,0.0,1.0,0.104076263122,-0.174363128468,9.73463051319,0.1,0.0,0.0,0.0,0.1,0.0,0.0,0.0,0.1
1405448447544693627,337,1405448447544693627,ardrone_base_link,-0.0392392003562,0.00864944001402,-0.0049783600636,0.999180007943,1.0,0.0,0.0,0.0,1.0,0.0,0.0,0.0,100000.0,0.00516065629199,-0.0600379966199,0.000822382047772,1.0,0.0,0.0,0.0,1.0,0.0,0.0,0.0,1.0,0.181256156415,-0.0857616828755,9.68587647676,0.1,0.0,0.0,0.0,0.1,0.0,0.0,0.0,0.1
1405448447545966333,338,1405448447545966333,ardrone_base_link,-0.0393075518064,0.00874109821587,-0.00507895127461,0.99917601744,1.0,0.0,0.0,0.0,1.0,0.0,0.0,0.0,100000.0,-0.0370913408697,0.0363485515118,-0.0277326796204,1.0,0.0,0.0,0.0,1.0,0.0,0.0,0.0,1.0,0.0932407164946,-0.380421345681,9.68118886948,0.1,0.0,0.0,0.0,0.1,0.0,0.0,0.0,0.1
1405448447547276074,339,1405448447547276074,ardrone_base_link,-0.0394119035595,0.00864950013239,-0.00517774214909,0.999172196867,1.0,0.0,0.0,0.0,1.0,0.0,0.0,0.0,100000.0,-0.0301422644407,-0.0385400131345,-0.0437911823392,1.0,0.0,0.0,0.0,1.0,0.0,0.0,0.0,1.0,0.0653879917227,-0.490389436483,9.7317671299,0.1,0.0,0.0,0.0,0.1,0.0,0.0,0.0,0.1
1405448447548422146,340,1405448447548422146,ardrone_base_link,-0.0394805009629,0.00867212365074,-0.00529851919467,0.999168659441,1.0,0.0,0.0,0.0,1.0,0.0,0.0,0.0,100000.0,-0.0519899949431,0.00470372894779,-0.0280964113772,1.0,0.0,0.0,0.0,1.0,0.0,0.0,0.0,1.0,0.0679311327636,-0.223557029665,9.73932980299,0.1,0.0,0.0,0.0,0.1,0.0,0.0,0.0,0.1
1405448447553272453,341,1405448447553272453,ardrone_base_link,-0.0395335721331,0.008694419389,-0.00519239483098,0.999166924383,1.0,0.0,0.0,0.0,1.0,0.0,0.0,0.0,100000.0,0.0307684242725,0.00433851452544,-0.0188526362181,1.0,0.0,0.0,0.0,1.0,0.0,0.0,0.0,1.0,0.00406476234784,-0.134658948705,9.71223338842,0.1,0.0,0.0,0.0,0.1,0.0,0.0,0.0,0.1
1405448447559326239,342,1405448447559326239,ardrone_base_link,-0.0395440088733,0.0086781537015,-0.00500083819481,0.999167629894,1.0,0.0,0.0,0.0,1.0,0.0,0.0,0.0,100000.0,0.0714332684875,-0.00563247967511,-0.00488997995853,1.0,0.0,0.0,0.0,1.0,0.0,0.0,0.0,1.0,0.0572037451901,-0.251757989079,9.77996274233,0.1,0.0,0.0,0.0,0.1,0.0,0.0,0.0,0.1
1405448447604356761,343,1405448447604356761,ardrone_base_link,-0.0394577549658,0.00870742994643,-0.00486942383153,0.999171434214,1.0,0.0,0.0,0.0,1.0,0.0,0.0,0.0,100000.0,0.0484924651682,0.0180644914508,0.0349406972528,1.0,0.0,0.0,0.0,1.0,0.0,0.0,0.0,1.0,0.204159663245,-0.287705146521,9.73105391264,0.1,0.0,0.0,0.0,0.1,0.0,0.0,0.0,0.1
1405448447605548013,344,1405448447605548013,ardrone_base_link,-0.039458733193,0.00867748385456,-0.00477454563684,0.999172113984,1.0,0.0,0.0,0.0,1.0,0.0,0.0,0.0,100000.0,0.034135453403,-0.00553404074162,0.00110739842057,1.0,0.0,0.0,0.0,1.0,0.0,0.0,0.0,1.0,0.142793991789,-0.245994933695,9.69395902157,0.1,0.0,0.0,0.0,0.1,0.0,0.0,0.0,0.1
1405448447607030260,345,1405448447607030260,ardrone_base_link,-0.039448273552,0.0088043333558,-0.00489186289885,0.999170849808,1.0,0.0,0.0,0.0,1.0,0.0,0.0,0.0,100000.0,-0.0438274182379,0.0430174134672,0.00255928561091,1.0,0.0,0.0,0.0,1.0,0.0,0.0,0.0,1.0,-0.0153685078258,-0.370066735148,9.73433202505,0.1,0.0,0.0,0.0,0.1,0.0,0.0,0.0,0.1
1405448447608248618,346,1405448447608248618,ardrone_base_link,-0.03949150297,0.00876370700124,-0.00496296067916,0.99916914867,1.0,0.0,0.0,0.0,1.0,0.0,0.0,0.0,100000.0,-0.0174010805786,-0.027963032946,-0.0175192840397,1.0,0.0,0.0,0.0,1.0,0.0,0.0,0.0,1.0,-0.0797442225739,-0.484359581769,9.77619279623,0.1,0.0,0.0,0.0,0.1,0.0,0.0,0.0,0.1
1405448447609544245,347,1405448447609544245,ardrone_base_link,-0.0395873039895,0.00882418210096,-0.00493353781687,0.999164971052,1.0,0.0,0.0,0.0,1.0,0.0,0.0,0.0,100000.0,0.00488191144541,0.0161023940891,-0.0400611013174,1.0,0.0,0.0,0.0,1.0,0.0,0.0,0.0,1.0,-0.0242431895807,-0.263620647416,9.80308885574,0.1,0.0,0.0,0.0,0.1,0.0,0.0,0.0,0.1
1405448447610746967,348,1405448447610746967,ardrone_base_link,-0.0396227791552,0.00877065539337,-0.00490043166373,0.999164199091,1.0,0.0,0.0,0.0,1.0,0.0,0.0,0.0,100000.0,0.00220430153422,-0.0218764338642,-0.0139954946935,1.0,0.0,0.0,0.0,1.0,0.0,0.0,0.0,1.0,0.0547538497485,-0.100523547828,9.75277870893,0.1,0.0,0.0,0.0,0.1,0.0,0.0,0.0,0.1
1405448447612217731,349,1405448447612217731,ardrone_base_link,-0.0396581656336,0.00876003076608,-0.00484815639529,0.999163143405,1.0,0.0,0.0,0.0,1.0,0.0,0.0,0.0,100000.0,0.0181747805327,-0.00758660584688,-0.0137161910534,1.0,0.0,0.0,0.0,1.0,0.0,0.0,0.0,1.0,0.0120334431762,-0.283020989224,9.7210957408,0.1,0.0,0.0,0.0,0.1,0.0,0.0,0.0,0.1
1405448447613356998,350,1405448447613356998,ardrone_base_link,-0.0395880087386,0.0087785126209,-0.00488295250055,0.999165593911,1.0,0.0,0.0,0.0,1.0,0.0,0.0,0.0,100000.0,-0.00504752993584,0.00412254827097,0.0293656084687,1.0,0.0,0.0,0.0,1.0,0.0,0.0,0.0,1.0,0.0591853408143,-0.437153112888,9.6546736598,0.1,0.0,0.0,0.0,0.1,0.0,0.0,0.0,0.1
1405448447614739085,351,1405448447614739085,ardrone_base_link,-0.0395544489776,0.00868735174881,-0.00479080526054,0.999168165861,1.0,0.0,0.0,0.0,1.0,0.0,0.0,0.0,100000.0,0.0350732505322,-0.0299496594816,0.0122585361823,1.0,0.0,0.0,0.0,1.0,0.0,0.0,0.0,1.0,0.179707730934,-0.290815286338,9.68259077072,0.1,0.0,0.0,0.0,0.1,0.0,0.0,0.0,0.1
1405448447616013476,352,1405448447616013476,ardrone_base_link,-0.0395282047586,0.00866210337686,-0.00481822823025,0.999169291797,1.0,0.0,0.0,0.0,1.0,0.0,0.0,0.0,100000.0,-0.0148630701005,-0.0136372838169,0.00974261760712,1.0,0.0,0.0,0.0,1.0,0.0,0.0,0.0,1.0,0.062654325366,-0.265835176781,9.70076817274,0.1,0.0,0.0,0.0,0.1,0.0,0.0,0.0,0.1
1405448447640890072,353,1405448447640890072,ardrone_base_link,-0.0395283147544,0.00860210231402,-0.00484680609744,0.999169667594,1.0,0.0,0.0,0.0,1.0,0.0,0.0,0.0,100000.0,-0.00800610892475,-0.0355589203537,0.000946888700128,1.0,0.0,0.0,0.0,1.0,0.0,0.0,0.0,1.0,-0.12047664579,-0.341337835789,9.64216461182,0.1,0.0,0.0,0.0,0.1,0.0,0.0,0.0,0.1
1405448447654931416,354,1405448447654931416,ardrone_base_link,-0.039606443226,0.00861258474277,-0.00488066165623,0.999166318578,1.0,0.0,0.0,0.0,1.0,0.0,0.0,0.0,100000.0,-0.0221446808428,-0.00602336041629,-0.0338002480567,1.0,0.0,0.0,0.0,1.0,0.0,0.0,0.0,1.0,-0.0647419443354,-0.172823391855,9.67767184973,0.1,0.0,0.0,0.0,0.1,0.0,0.0,0.0,0.1
1405448447656262337,355,1405448447656262337,ardrone_base_link,-0.0396057745722,0.00866662933272,-0.00492218008717,0.9991656741,1.0,0.0,0.0,0.0,1.0,0.0,0.0,0.0,100000.0,-0.0270647965372,0.0182861443609,0.000765992328525,1.0,0.0,0.0,0.0,1.0,0.0,0.0,0.0,1.0,0.0478579194285,-0.124634998851,9.68614634275,0.1,0.0,0.0,0.0,0.1,0.0,0.0,0.0,0.1
1405448447657580491,356,1405448447657580491,ardrone_base_link,-0.0396328833718,0.00872191369108,-0.00477129794913,0.999164850009,1.0,0.0,0.0,0.0,1.0,0.0,0.0,0.0,100000.0,0.0576559565961,0.0192328728735,-0.00985125079751,1.0,0.0,0.0,0.0,1.0,0.0,0.0,0.0,1.0,0.023081274936,-0.300492366031,9.66905716658,0.1,0.0,0.0,0.0,0.1,0.0,0.0,0.0,0.1
1405448447658914333,357,1405448447658914333,ardrone_base_link,-0.0395976653883,0.00875731571367,-0.00478765562564,0.999165858439,1.0,0.0,0.0,0.0,1.0,0.0,0.0,0.0,100000.0,-0.00374041893519,0.00740312319249,0.0131305800751,1.0,0.0,0.0,0.0,1.0,0.0,0.0,0.0,1.0,-0.0131315523759,-0.384167853743,9.71658687592,0.1,0.0,0.0,0.0,0.1,0.0,0.0,0.0,0.1
1405448447660204534,358,1405448447660204534,ardrone_base_link,-0.0395370593225,0.00874657886043,-0.00474493939986,0.999168556275,1.0,0.0,0.0,0.0,1.0,0.0,0.0,0.0,100000.0,0.0137365134433,-0.00479546841234,0.0240380633622,1.0,0.0,0.0,0.0,1.0,0.0,0.0,0.0,1.0,0.0728360621259,-0.260767157748,9.71786260605,0.1,0.0,0.0,0.0,0.1,0.0,0.0,0.0,0.1
1405448447661465986,359,1405448447661465986,ardrone_base_link,-0.0395464123903,0.00868420399817,-0.00471240642766,0.99916888417,1.0,0.0,0.0,0.0,1.0,0.0,0.0,0.0,100000.0,0.00891536846757,-0.0257601458579,-0.00164390169084,1.0,0.0,0.0,0.0,1.0,0.0,0.0,0.0,1.0,0.10513257198,-0.209071173146,9.61671017408,0.1,0.0,0.0,0.0,0.1,0.0,0.0,0.0,0.1
1405448447662779604,360,1405448447662779604,ardrone_base_link,-0.0395546675713,0.00866084880849,-0.00478312377294,0.99916842409,1.0,0.0,0.0,0.0,1.0,0.0,0.0,0.0,100000.0,-0.0298528317362,-0.015690067783,-0.00631402805448,1.0,0.0,0.0,0.0,1.0,0.0,0.0,0.0,1.0,-0.0178379805991,-0.311583467573,9.62124766111,0.1,0.0,0.0,0.0,0.1,0.0,0.0,0.0,0.1
1405448447664230129,361,1405448447664230129,ardrone_base_link,-0.0396159107429,0.00867719658991,-0.00474702419636,0.999166028064,1.0,0.0,0.0,0.0,1.0,0.0,0.0,0.0,100000.0,0.0152857983485,-0.00188190652989,-0.0231977310032,1.0,0.0,0.0,0.0,1.0,0.0,0.0,0.0,1.0,-0.0480627558194,-0.320918413997,9.7825784564,0.1,0.0,0.0,0.0,0.1,0.0,0.0,0.0,0.1
1405448447707347766,362,1405448447707347766,ardrone_base_link,-0.0396504168541,0.00861106763091,-0.00483668905856,0.99916480142,1.0,0.0,0.0,0.0,1.0,0.0,0.0,0.0,100000.0,-0.0352979563177,-0.0300432611257,-0.0127730388194,1.0,0.0,0.0,0.0,1.0,0.0,0.0,0.0,1.0,0.0257340695709,-0.328842040151,9.83933150768,0.1,0.0,0.0,0.0,0.1,0.0,0.0,0.0,0.1
1405448447708588227,363,1405448447708588227,ardrone_base_link,-0.0396671027023,0.00861461368064,-0.00492373228563,0.999163683415,1.0,0.0,0.0,0.0,1.0,0.0,0.0,0.0,100000.0,-0.033885423094,-0.000361745245755,-0.00766933895648,1.0,0.0,0.0,0.0,1.0,0.0,0.0,0.0,1.0,0.106494022533,-0.332252347469,9.782543993,0.1,0.0,0.0,0.0,0.1,0.0,0.0,0.0,0.1
1405448447709886259,364,1405448447709886259,ardrone_base_link,-0.0396224767846,0.00860214701298,-0.00505559170655,0.999164903003,1.0,0.0,0.0,0.0,1.0,0.0,0.0,0.0,100000.0,-0.0518692806363,-0.00907514616847,0.017944579944,1.0,0.0,0.0,0.0,1.0,0.0,0.0,0.0,1.0,0.0620089305565,-0.321253081411,9.75772333145,0.1,0.0,0.0,0.0,0.1,0.0,0.0,0.0,0.1
1405448447711323901,365,1405448447711323901,ardrone_base_link,-0.0395614414851,0.0085763704014,-0.00507459433836,0.999167446783,1.0,0.0,0.0,0.0,1.0,0.0,0.0,0.0,100000.0,-0.00906779617071,-0.0163495372981,0.0242146197706,1.0,0.0,0.0,0.0,1.0,0.0,0.0,0.0,1.0,0.018217568635,-0.272842054442,9.77030597925,0.1,0.0,0.0,0.0,0.1,0.0,0.0,0.0,0.1
1405448447712616168,366,1405448447712616168,ardrone_base_link,-0.0395437557214,0.00867081479997,-0.00503606170346,0.999167526712,1.0,0.0,0.0,0.0,1.0,0.0,0.0,0.0,100000.0,0.00560277979821,0.0356031134725,0.00450561009347,1.0,0.0,0.0,0.0,1.0,0.0,0.0,0.0,1.0,0.0500151816756,-0.216863316298,9.75023367405,0.1,0.0,0.0,0.0,0.1,0.0,0.0,0.0,0.1
1405448447713869183,367,1405448447713869183,ardrone_base_link,-0.0395353854635,0.00860973504813,-0.00503855798111,0.999168373545,1.0,0.0,0.0,0.0,1.0,0.0,0.0,0.0,100000.0,-0.00622685113922,-0.0267714653164,0.00361977517605,1.0,0.0,0.0,0.0,1.0,0.0,0.0,0.0,1.0,0.0240331462584,-0.219162543863,9.70184004307,0.1,0.0,0.0,0.0,0.1,0.0,0.0,0.0,0.1
1405448447714977420,368,1405448447714977420,ardrone_base_link,-0.0396138125113,0.00866978357621,-0.00500057882059,0.999164938798,1.0,0.0,0.0,0.0,1.0,0.0,0.0,0.0,100000.0,0.0131041137502,0.0173829644918,-0.0311924535781,1.0,0.0,0.0,0.0,1.0,0.0,0.0,0.0,1.0,-0.0257946611848,-0.290154366568,9.7295696497,0.1,0.0,0.0,0.0,0.1,0.0,0.0,0.0,0.1
